File: Experimental data/EDX/3/Line Sum Spectrum.txt
#FORMAT      : EMSA/MAS Spectral Data File
#VERSION     : 1.0
#TITLE       : Line Sum Spectrum
#DATE        : 21-APR-2024
#TIME        : 20:45
#OWNER       :
#NPOINTS     : 1024.0
#NCOLUMNS    : 1.0
#XUNITS      : keV
#YUNITS      : counts
#DATATYPE    : XY
#XPERCHAN    : 0.01
#OFFSET      : -0.1
#SIGNALTYPE  : EDS
#CHOFFSET    : 10.0
#LIVETIME    : 35.0
#REALTIME    : 88.9787
#BEAMKV      : 10.0
#PROBECUR    : 0.0
#MAGCAM      : 9842.0
#XTILTSTGE   : 0.0
#AZIMANGLE   : 0.0
#ELEVANGLE   : 35.0
#XPOSITION mm: 57.1523
#YPOSITION mm: 65.2790
#ZPOSITION mm: 35.4358
##OXINSTPT   : 6
##OXINSTSTROB: 29.11
##OXINSTNDET : 1
##OXINSTELEMS: 6,8,9,14,19,26,28,24,11
##OXINSTLABEL: 6, 0.277, C
##OXINSTLABEL: 8, 0.525, O
##OXINSTLABEL: 9, 0.677, F
##OXINSTLABEL: 14, 1.740, Si
##OXINSTLABEL: 19, 3.314, K
##OXINSTLABEL: 19, 3.590, K
##OXINSTLABEL: 19, 0.260, K
##OXINSTLABEL: 26, 6.404, Fe
##OXINSTLABEL: 26, 7.058, Fe
##OXINSTLABEL: 26, 0.703, Fe
##OXINSTLABEL: 26, 0.615, Fe
##OXINSTLABEL: 28, 7.478, Ni
##OXINSTLABEL: 28, 8.265, Ni
##OXINSTLABEL: 28, 0.851, Ni
##OXINSTLABEL: 28, 0.762, Ni
##OXINSTLABEL: 28, 0.743, Ni
##OXINSTLABEL: 24, 5.415, Cr
##OXINSTLABEL: 24, 5.947, Cr
##OXINSTLABEL: 24, 0.573, Cr
##OXINSTLABEL: 24, 0.500, Cr
##OXINSTLABEL: 11, 1.041, Na
#SPECTRUM    : Spectral Data Starts Here
-0.10000, 0.0
-0.09000, 0.0
-0.08000, 0.0
-0.07000, 0.0
-0.06000, 1.0
-0.05000, 5.0
-0.04000, 22.0
-0.03000, 143.0
-0.02000, 547.0
-0.01000, 1384.0
0.00000, 2157.0
0.01000, 2244.0
0.02000, 1732.0
0.03000, 1044.0
0.04000, 565.0
0.05000, 497.0
0.06000, 765.0
0.07000, 1433.0
0.08000, 2347.0
0.09000, 2903.0
0.10000, 2580.0
0.11000, 1774.0
0.12000, 1023.0
0.13000, 606.0
0.14000, 477.0
0.15000, 483.0
0.16000, 508.0
0.17000, 567.0
0.18000, 622.0
0.19000, 722.0
0.20000, 891.0
0.21000, 1213.0
0.22000, 1949.0
0.23000, 3769.0
0.24000, 7882.0
0.25000, 15317.0
0.26000, 24254.0
0.27000, 29722.0
0.28000, 27538.0
0.29000, 19211.0
0.30000, 10095.0
0.31000, 4038.0
0.32000, 1355.0
0.33000, 549.0
0.34000, 382.0
0.35000, 372.0
0.36000, 410.0
0.37000, 429.0
0.38000, 459.0
0.39000, 504.0
0.40000, 544.0
0.41000, 572.0
0.42000, 591.0
0.43000, 648.0
0.44000, 716.0
0.45000, 777.0
0.46000, 869.0
0.47000, 1043.0
0.48000, 1194.0
0.49000, 1523.0
0.50000, 2045.0
0.51000, 2485.0
0.52000, 2769.0
0.53000, 2723.0
0.54000, 2315.0
0.55000, 1872.0
0.56000, 1643.0
0.57000, 1490.0
0.58000, 1478.0
0.59000, 1610.0
0.60000, 1784.0
0.61000, 1991.0
0.62000, 2283.0
0.63000, 2642.0
0.64000, 3477.0
0.65000, 5031.0
0.66000, 7004.0
0.67000, 8845.0
0.68000, 9750.0
0.69000, 9452.0
0.70000, 8159.0
0.71000, 6565.0
0.72000, 5026.0
0.73000, 3707.0
0.74000, 2858.0
0.75000, 2281.0
0.76000, 1988.0
0.77000, 1901.0
0.78000, 1962.0
0.79000, 1896.0
0.80000, 1924.0
0.81000, 2021.0
0.82000, 2139.0
0.83000, 2323.0
0.84000, 2598.0
0.85000, 2684.0
0.86000, 2626.0
0.87000, 2453.0
0.88000, 2376.0
0.89000, 2315.0
0.90000, 2126.0
0.91000, 2003.0
0.92000, 1994.0
0.93000, 2018.0
0.94000, 2061.0
0.95000, 2070.0
0.96000, 2058.0
0.97000, 2010.0
0.98000, 2021.0
0.99000, 2032.0
1.00000, 2070.0
1.01000, 2106.0
1.02000, 2183.0
1.03000, 2212.0
1.04000, 2240.0
1.05000, 2275.0
1.06000, 2227.0
1.07000, 2183.0
1.08000, 2138.0
1.09000, 2091.0
1.10000, 2113.0
1.11000, 2038.0
1.12000, 1992.0
1.13000, 2020.0
1.14000, 2063.0
1.15000, 2031.0
1.16000, 2023.0
1.17000, 2011.0
1.18000, 2050.0
1.19000, 2050.0
1.20000, 2001.0
1.21000, 1983.0
1.22000, 1970.0
1.23000, 2005.0
1.24000, 2035.0
1.25000, 2021.0
1.26000, 2003.0
1.27000, 1982.0
1.28000, 2024.0
1.29000, 2009.0
1.30000, 1966.0
1.31000, 1995.0
1.32000, 1950.0
1.33000, 1913.0
1.34000, 1932.0
1.35000, 1955.0
1.36000, 1967.0
1.37000, 2001.0
1.38000, 1967.0
1.39000, 1974.0
1.40000, 2021.0
1.41000, 2037.0
1.42000, 1999.0
1.43000, 2052.0
1.44000, 2125.0
1.45000, 2227.0
1.46000, 2362.0
1.47000, 2489.0
1.48000, 2603.0
1.49000, 2638.0
1.50000, 2517.0
1.51000, 2465.0
1.52000, 2466.0
1.53000, 2439.0
1.54000, 2328.0
1.55000, 2287.0
1.56000, 2279.0
1.57000, 2242.0
1.58000, 2200.0
1.59000, 2178.0
1.60000, 2220.0
1.61000, 2203.0
1.62000, 2147.0
1.63000, 2276.0
1.64000, 2644.0
1.65000, 3681.0
1.66000, 6200.0
1.67000, 11512.0
1.68000, 21279.0
1.69000, 37531.0
1.70000, 61860.0
1.71000, 91893.0
1.72000, 123672.0
1.73000, 149992.0
1.74000, 163020.0
1.75000, 159137.0
1.76000, 140331.0
1.77000, 112207.0
1.78000, 81050.0
1.79000, 53789.0
1.80000, 34007.0
1.81000, 21552.0
1.82000, 14475.0
1.83000, 10839.0
1.84000, 8976.0
1.85000, 7600.0
1.86000, 6233.0
1.87000, 4919.0
1.88000, 3734.0
1.89000, 2839.0
1.90000, 2105.0
1.91000, 1559.0
1.92000, 1320.0
1.93000, 1184.0
1.94000, 1141.0
1.95000, 1116.0
1.96000, 1118.0
1.97000, 1100.0
1.98000, 1152.0
1.99000, 1229.0
2.00000, 1257.0
2.01000, 1261.0
2.02000, 1232.0
2.03000, 1201.0
2.04000, 1117.0
2.05000, 1078.0
2.06000, 1027.0
2.07000, 971.0
2.08000, 898.0
2.09000, 907.0
2.10000, 916.0
2.11000, 885.0
2.12000, 905.0
2.13000, 910.0
2.14000, 860.0
2.15000, 861.0
2.16000, 891.0
2.17000, 908.0
2.18000, 893.0
2.19000, 874.0
2.20000, 897.0
2.21000, 876.0
2.22000, 893.0
2.23000, 894.0
2.24000, 930.0
2.25000, 945.0
2.26000, 966.0
2.27000, 1009.0
2.28000, 1099.0
2.29000, 1121.0
2.30000, 1099.0
2.31000, 1070.0
2.32000, 1069.0
2.33000, 1063.0
2.34000, 1014.0
2.35000, 983.0
2.36000, 960.0
2.37000, 958.0
2.38000, 935.0
2.39000, 967.0
2.40000, 956.0
2.41000, 956.0
2.42000, 975.0
2.43000, 981.0
2.44000, 960.0
2.45000, 934.0
2.46000, 908.0
2.47000, 857.0
2.48000, 847.0
2.49000, 829.0
2.50000, 829.0
2.51000, 844.0
2.52000, 853.0
2.53000, 822.0
2.54000, 810.0
2.55000, 803.0
2.56000, 803.0
2.57000, 781.0
2.58000, 748.0
2.59000, 771.0
2.60000, 782.0
2.61000, 783.0
2.62000, 766.0
2.63000, 772.0
2.64000, 759.0
2.65000, 747.0
2.66000, 735.0
2.67000, 742.0
2.68000, 733.0
2.69000, 754.0
2.70000, 758.0
2.71000, 763.0
2.72000, 752.0
2.73000, 742.0
2.74000, 732.0
2.75000, 737.0
2.76000, 756.0
2.77000, 753.0
2.78000, 751.0
2.79000, 725.0
2.80000, 739.0
2.81000, 736.0
2.82000, 718.0
2.83000, 689.0
2.84000, 690.0
2.85000, 715.0
2.86000, 709.0
2.87000, 714.0
2.88000, 706.0
2.89000, 711.0
2.90000, 696.0
2.91000, 679.0
2.92000, 685.0
2.93000, 695.0
2.94000, 691.0
2.95000, 689.0
2.96000, 677.0
2.97000, 696.0
2.98000, 702.0
2.99000, 701.0
3.00000, 692.0
3.01000, 671.0
3.02000, 648.0
3.03000, 660.0
3.04000, 670.0
3.05000, 661.0
3.06000, 640.0
3.07000, 637.0
3.08000, 653.0
3.09000, 654.0
3.10000, 655.0
3.11000, 628.0
3.12000, 609.0
3.13000, 642.0
3.14000, 639.0
3.15000, 631.0
3.16000, 668.0
3.17000, 655.0
3.18000, 677.0
3.19000, 679.0
3.20000, 665.0
3.21000, 683.0
3.22000, 732.0
3.23000, 837.0
3.24000, 928.0
3.25000, 1097.0
3.26000, 1295.0
3.27000, 1507.0
3.28000, 1779.0
3.29000, 2112.0
3.30000, 2419.0
3.31000, 2522.0
3.32000, 2536.0
3.33000, 2507.0
3.34000, 2346.0
3.35000, 2085.0
3.36000, 1792.0
3.37000, 1542.0
3.38000, 1271.0
3.39000, 1059.0
3.40000, 955.0
3.41000, 930.0
3.42000, 1026.0
3.43000, 1154.0
3.44000, 1277.0
3.45000, 1386.0
3.46000, 1505.0
3.47000, 1635.0
3.48000, 1729.0
3.49000, 1695.0
3.50000, 1693.0
3.51000, 1628.0
3.52000, 1429.0
3.53000, 1300.0
3.54000, 1215.0
3.55000, 1105.0
3.56000, 1018.0
3.57000, 927.0
3.58000, 923.0
3.59000, 927.0
3.60000, 836.0
3.61000, 798.0
3.62000, 787.0
3.63000, 728.0
3.64000, 668.0
3.65000, 627.0
3.66000, 575.0
3.67000, 570.0
3.68000, 569.0
3.69000, 528.0
3.70000, 509.0
3.71000, 517.0
3.72000, 510.0
3.73000, 483.0
3.74000, 485.0
3.75000, 486.0
3.76000, 496.0
3.77000, 479.0
3.78000, 500.0
3.79000, 480.0
3.80000, 445.0
3.81000, 458.0
3.82000, 474.0
3.83000, 491.0
3.84000, 473.0
3.85000, 478.0
3.86000, 467.0
3.87000, 456.0
3.88000, 464.0
3.89000, 433.0
3.90000, 442.0
3.91000, 436.0
3.92000, 414.0
3.93000, 418.0
3.94000, 438.0
3.95000, 444.0
3.96000, 442.0
3.97000, 438.0
3.98000, 424.0
3.99000, 436.0
4.00000, 419.0
4.01000, 431.0
4.02000, 454.0
4.03000, 438.0
4.04000, 431.0
4.05000, 426.0
4.06000, 405.0
4.07000, 396.0
4.08000, 401.0
4.09000, 397.0
4.10000, 408.0
4.11000, 447.0
4.12000, 434.0
4.13000, 436.0
4.14000, 423.0
4.15000, 423.0
4.16000, 395.0
4.17000, 395.0
4.18000, 372.0
4.19000, 388.0
4.20000, 398.0
4.21000, 374.0
4.22000, 383.0
4.23000, 382.0
4.24000, 395.0
4.25000, 404.0
4.26000, 351.0
4.27000, 360.0
4.28000, 384.0
4.29000, 373.0
4.30000, 369.0
4.31000, 380.0
4.32000, 384.0
4.33000, 389.0
4.34000, 391.0
4.35000, 377.0
4.36000, 371.0
4.37000, 373.0
4.38000, 365.0
4.39000, 385.0
4.40000, 357.0
4.41000, 330.0
4.42000, 350.0
4.43000, 352.0
4.44000, 359.0
4.45000, 387.0
4.46000, 353.0
4.47000, 347.0
4.48000, 353.0
4.49000, 342.0
4.50000, 352.0
4.51000, 342.0
4.52000, 320.0
4.53000, 340.0
4.54000, 327.0
4.55000, 312.0
4.56000, 328.0
4.57000, 336.0
4.58000, 334.0
4.59000, 349.0
4.60000, 363.0
4.61000, 345.0
4.62000, 352.0
4.63000, 343.0
4.64000, 325.0
4.65000, 324.0
4.66000, 326.0
4.67000, 323.0
4.68000, 332.0
4.69000, 348.0
4.70000, 318.0
4.71000, 320.0
4.72000, 325.0
4.73000, 324.0
4.74000, 310.0
4.75000, 306.0
4.76000, 334.0
4.77000, 337.0
4.78000, 314.0
4.79000, 296.0
4.80000, 290.0
4.81000, 299.0
4.82000, 303.0
4.83000, 316.0
4.84000, 316.0
4.85000, 297.0
4.86000, 293.0
4.87000, 291.0
4.88000, 292.0
4.89000, 282.0
4.90000, 306.0
4.91000, 316.0
4.92000, 297.0
4.93000, 281.0
4.94000, 292.0
4.95000, 275.0
4.96000, 293.0
4.97000, 303.0
4.98000, 290.0
4.99000, 274.0
5.00000, 320.0
5.01000, 321.0
5.02000, 311.0
5.03000, 299.0
5.04000, 297.0
5.05000, 329.0
5.06000, 307.0
5.07000, 313.0
5.08000, 304.0
5.09000, 289.0
5.10000, 279.0
5.11000, 292.0
5.12000, 289.0
5.13000, 273.0
5.14000, 283.0
5.15000, 290.0
5.16000, 284.0
5.17000, 263.0
5.18000, 281.0
5.19000, 298.0
5.20000, 269.0
5.21000, 272.0
5.22000, 260.0
5.23000, 237.0
5.24000, 254.0
5.25000, 264.0
5.26000, 253.0
5.27000, 264.0
5.28000, 270.0
5.29000, 252.0
5.30000, 251.0
5.31000, 263.0
5.32000, 282.0
5.33000, 265.0
5.34000, 281.0
5.35000, 313.0
5.36000, 326.0
5.37000, 317.0
5.38000, 321.0
5.39000, 317.0
5.40000, 300.0
5.41000, 344.0
5.42000, 367.0
5.43000, 353.0
5.44000, 336.0
5.45000, 320.0
5.46000, 313.0
5.47000, 303.0
5.48000, 275.0
5.49000, 279.0
5.50000, 271.0
5.51000, 254.0
5.52000, 245.0
5.53000, 236.0
5.54000, 247.0
5.55000, 251.0
5.56000, 225.0
5.57000, 226.0
5.58000, 232.0
5.59000, 216.0
5.60000, 244.0
5.61000, 239.0
5.62000, 217.0
5.63000, 212.0
5.64000, 217.0
5.65000, 213.0
5.66000, 230.0
5.67000, 214.0
5.68000, 196.0
5.69000, 192.0
5.70000, 197.0
5.71000, 208.0
5.72000, 210.0
5.73000, 230.0
5.74000, 215.0
5.75000, 197.0
5.76000, 207.0
5.77000, 205.0
5.78000, 198.0
5.79000, 202.0
5.80000, 204.0
5.81000, 186.0
5.82000, 181.0
5.83000, 200.0
5.84000, 202.0
5.85000, 196.0
5.86000, 186.0
5.87000, 198.0
5.88000, 204.0
5.89000, 214.0
5.90000, 198.0
5.91000, 186.0
5.92000, 188.0
5.93000, 200.0
5.94000, 208.0
5.95000, 213.0
5.96000, 212.0
5.97000, 205.0
5.98000, 195.0
5.99000, 177.0
6.00000, 178.0
6.01000, 173.0
6.02000, 188.0
6.03000, 186.0
6.04000, 187.0
6.05000, 200.0
6.06000, 196.0
6.07000, 186.0
6.08000, 177.0
6.09000, 175.0
6.10000, 172.0
6.11000, 177.0
6.12000, 178.0
6.13000, 169.0
6.14000, 167.0
6.15000, 166.0
6.16000, 160.0
6.17000, 169.0
6.18000, 198.0
6.19000, 182.0
6.20000, 173.0
6.21000, 182.0
6.22000, 175.0
6.23000, 171.0
6.24000, 165.0
6.25000, 178.0
6.26000, 185.0
6.27000, 180.0
6.28000, 190.0
6.29000, 209.0
6.30000, 234.0
6.31000, 266.0
6.32000, 282.0
6.33000, 294.0
6.34000, 358.0
6.35000, 406.0
6.36000, 443.0
6.37000, 475.0
6.38000, 517.0
6.39000, 535.0
6.40000, 546.0
6.41000, 542.0
6.42000, 502.0
6.43000, 491.0
6.44000, 454.0
6.45000, 390.0
6.46000, 366.0
6.47000, 308.0
6.48000, 276.0
6.49000, 244.0
6.50000, 218.0
6.51000, 188.0
6.52000, 186.0
6.53000, 162.0
6.54000, 154.0
6.55000, 135.0
6.56000, 152.0
6.57000, 157.0
6.58000, 138.0
6.59000, 138.0
6.60000, 148.0
6.61000, 152.0
6.62000, 148.0
6.63000, 137.0
6.64000, 138.0
6.65000, 135.0
6.66000, 135.0
6.67000, 138.0
6.68000, 137.0
6.69000, 133.0
6.70000, 138.0
6.71000, 133.0
6.72000, 131.0
6.73000, 126.0
6.74000, 136.0
6.75000, 144.0
6.76000, 138.0
6.77000, 139.0
6.78000, 125.0
6.79000, 131.0
6.80000, 137.0
6.81000, 123.0
6.82000, 126.0
6.83000, 135.0
6.84000, 128.0
6.85000, 121.0
6.86000, 119.0
6.87000, 120.0
6.88000, 116.0
6.89000, 121.0
6.90000, 144.0
6.91000, 139.0
6.92000, 138.0
6.93000, 132.0
6.94000, 132.0
6.95000, 133.0
6.96000, 127.0
6.97000, 127.0
6.98000, 136.0
6.99000, 132.0
7.00000, 143.0
7.01000, 155.0
7.02000, 169.0
7.03000, 178.0
7.04000, 171.0
7.05000, 162.0
7.06000, 158.0
7.07000, 158.0
7.08000, 162.0
7.09000, 142.0
7.10000, 132.0
7.11000, 132.0
7.12000, 140.0
7.13000, 132.0
7.14000, 134.0
7.15000, 126.0
7.16000, 111.0
7.17000, 109.0
7.18000, 115.0
7.19000, 114.0
7.20000, 116.0
7.21000, 100.0
7.22000, 107.0
7.23000, 109.0
7.24000, 101.0
7.25000, 107.0
7.26000, 101.0
7.27000, 101.0
7.28000, 91.0
7.29000, 92.0
7.30000, 105.0
7.31000, 104.0
7.32000, 95.0
7.33000, 91.0
7.34000, 89.0
7.35000, 96.0
7.36000, 109.0
7.37000, 103.0
7.38000, 98.0
7.39000, 91.0
7.40000, 89.0
7.41000, 96.0
7.42000, 106.0
7.43000, 111.0
7.44000, 105.0
7.45000, 102.0
7.46000, 104.0
7.47000, 101.0
7.48000, 103.0
7.49000, 96.0
7.50000, 91.0
7.51000, 93.0
7.52000, 88.0
7.53000, 88.0
7.54000, 96.0
7.55000, 88.0
7.56000, 97.0
7.57000, 88.0
7.58000, 85.0
7.59000, 87.0
7.60000, 93.0
7.61000, 94.0
7.62000, 86.0
7.63000, 76.0
7.64000, 75.0
7.65000, 83.0
7.66000, 80.0
7.67000, 75.0
7.68000, 71.0
7.69000, 73.0
7.70000, 69.0
7.71000, 72.0
7.72000, 77.0
7.73000, 73.0
7.74000, 77.0
7.75000, 82.0
7.76000, 87.0
7.77000, 78.0
7.78000, 77.0
7.79000, 79.0
7.80000, 80.0
7.81000, 77.0
7.82000, 78.0
7.83000, 77.0
7.84000, 76.0
7.85000, 79.0
7.86000, 75.0
7.87000, 79.0
7.88000, 79.0
7.89000, 86.0
7.90000, 91.0
7.91000, 76.0
7.92000, 79.0
7.93000, 82.0
7.94000, 67.0
7.95000, 71.0
7.96000, 65.0
7.97000, 59.0
7.98000, 59.0
7.99000, 69.0
8.00000, 69.0
8.01000, 66.0
8.02000, 58.0
8.03000, 63.0
8.04000, 63.0
8.05000, 69.0
8.06000, 78.0
8.07000, 69.0
8.08000, 62.0
8.09000, 68.0
8.10000, 64.0
8.11000, 65.0
8.12000, 63.0
8.13000, 59.0
8.14000, 63.0
8.15000, 63.0
8.16000, 67.0
8.17000, 69.0
8.18000, 68.0
8.19000, 56.0
8.20000, 53.0
8.21000, 59.0
8.22000, 61.0
8.23000, 66.0
8.24000, 73.0
8.25000, 57.0
8.26000, 53.0
8.27000, 56.0
8.28000, 50.0
8.29000, 50.0
8.30000, 51.0
8.31000, 55.0
8.32000, 56.0
8.33000, 53.0
8.34000, 48.0
8.35000, 40.0
8.36000, 45.0
8.37000, 47.0
8.38000, 50.0
8.39000, 51.0
8.40000, 53.0
8.41000, 43.0
8.42000, 45.0
8.43000, 49.0
8.44000, 46.0
8.45000, 40.0
8.46000, 41.0
8.47000, 47.0
8.48000, 54.0
8.49000, 59.0
8.50000, 52.0
8.51000, 42.0
8.52000, 39.0
8.53000, 36.0
8.54000, 33.0
8.55000, 35.0
8.56000, 38.0
8.57000, 37.0
8.58000, 45.0
8.59000, 38.0
8.60000, 33.0
8.61000, 35.0
8.62000, 41.0
8.63000, 44.0
8.64000, 42.0
8.65000, 37.0
8.66000, 31.0
8.67000, 30.0
8.68000, 34.0
8.69000, 35.0
8.70000, 42.0
8.71000, 36.0
8.72000, 41.0
8.73000, 36.0
8.74000, 39.0
8.75000, 38.0
8.76000, 34.0
8.77000, 41.0
8.78000, 36.0
8.79000, 34.0
8.80000, 35.0
8.81000, 38.0
8.82000, 34.0
8.83000, 31.0
8.84000, 28.0
8.85000, 30.0
8.86000, 32.0
8.87000, 28.0
8.88000, 28.0
8.89000, 30.0
8.90000, 30.0
8.91000, 27.0
8.92000, 24.0
8.93000, 24.0
8.94000, 27.0
8.95000, 31.0
8.96000, 32.0
8.97000, 32.0
8.98000, 30.0
8.99000, 21.0
9.00000, 26.0
9.01000, 29.0
9.02000, 29.0
9.03000, 30.0
9.04000, 35.0
9.05000, 30.0
9.06000, 30.0
9.07000, 23.0
9.08000, 22.0
9.09000, 24.0
9.10000, 26.0
9.11000, 26.0
9.12000, 25.0
9.13000, 20.0
9.14000, 24.0
9.15000, 23.0
9.16000, 23.0
9.17000, 24.0
9.18000, 17.0
9.19000, 14.0
9.20000, 12.0
9.21000, 22.0
9.22000, 23.0
9.23000, 17.0
9.24000, 14.0
9.25000, 17.0
9.26000, 19.0
9.27000, 15.0
9.28000, 21.0
9.29000, 24.0
9.30000, 23.0
9.31000, 16.0
9.32000, 14.0
9.33000, 13.0
9.34000, 12.0
9.35000, 22.0
9.36000, 21.0
9.37000, 17.0
9.38000, 13.0
9.39000, 15.0
9.40000, 16.0
9.41000, 16.0
9.42000, 18.0
9.43000, 16.0
9.44000, 12.0
9.45000, 12.0
9.46000, 15.0
9.47000, 12.0
9.48000, 7.0
9.49000, 11.0
9.50000, 13.0
9.51000, 13.0
9.52000, 15.0
9.53000, 12.0
9.54000, 7.0
9.55000, 7.0
9.56000, 10.0
9.57000, 12.0
9.58000, 12.0
9.59000, 11.0
9.60000, 9.0
9.61000, 7.0
9.62000, 10.0
9.63000, 8.0
9.64000, 7.0
9.65000, 7.0
9.66000, 8.0
9.67000, 8.0
9.68000, 7.0
9.69000, 8.0
9.70000, 13.0
9.71000, 9.0
9.72000, 4.0
9.73000, 5.0
9.74000, 6.0
9.75000, 4.0
9.76000, 6.0
9.77000, 7.0
9.78000, 5.0
9.79000, 4.0
9.80000, 3.0
9.81000, 2.0
9.82000, 1.0
9.83000, 2.0
9.84000, 5.0
9.85000, 5.0
9.86000, 3.0
9.87000, 1.0
9.88000, 3.0
9.89000, 3.0
9.90000, 2.0
9.91000, 4.0
9.92000, 3.0
9.93000, 3.0
9.94000, 3.0
9.95000, 1.0
9.96000, 0.0
9.97000, 1.0
9.98000, 2.0
9.99000, 1.0
10.00000, 3.0
10.01000, 2.0
10.02000, 2.0
10.03000, 1.0
10.04000, 1.0
10.05000, 5.0
10.06000, 7.0
10.07000, 3.0
10.08000, 1.0
10.09000, 0.0
10.10000, 1.0
10.11000, 2.0
10.12000, 1.0
10.13000, 1.0
#ENDOFDATA   :