File: Experimental data/XRD/SiC_Theta_2-Theta.asc
*TYPE		=  Raw
*CLASS		=  ASCII CLASS
*SAMPLE		=
*COMMENT	=
*FNAME		=  SiC_Theta_2-Theta.asc
*DATE		=  14-Sep-23 17:30

*GROUP_COUNT	=  1
*GONIO		=  SmartLab(In-plane), 0.000000
*ATTACHMENT	=  Z-Phi Stage
*ASC		=  0, 0, 0.000000, 0.000000
*I_MONOCHRO	=  Soller_slit_5.0deg, 0.000000
*FILTER		=  Cu_K-beta
*C_MONOCHRO	=  None, 0.000000
*SLIT_NAME	=  0, Incident slit
*SLIT_NAME	=  1, Receiving slit # 1
*SLIT_NAME	=  2, Receiving slit # 2
*COUNTER	=  SC-70, 0
*POS_FORMAT	=  0
*SCAN_AXIS	=  2theta/theta
*MEAS_MODE	=  Continuous Scanning
*TARGET		=  29
*XRAY_CHAR	=  K-ALPHA
*WAVE_LENGTH1	=  1.54059
*WAVE_LENGTH2	=  1.54441
*THICKNESS	=  0, 0.000000
*MU		=  0, 0.000000
*SCAN_MODE	=  2theta/theta
*SPEED_DIM	=  sec./step
*XUNIT		=  deg.
*YUNIT		=  counts
*SCALE_MODE	=  1
*REP_COUNT	=  0
*SE_COUNT	=  0
*STD_MATERIAL	=  Unknown, Unknown, 0.000000, 0.000000, 0.000000, 0.000000, 0.000000, 0.000000
*LATT_CONS	=  0, Unknown, Unknown, 0.000000, 0.000000, 0.000000, 0.000000, 0.000000, 0.000000
*SEC_COUNT	=  1
*TSPEC_SIZE	=  0
*EXTRA_SIZE	=  0
*MEMO		=  PB-PSA (XRD measured along surface normal direction)

*BEGIN
*GROUP		=  0
*START		=  20
*STOP		=  80
*STEP		=  0.02
*OFFSET		=  0.000000
*SPEED		=  0.24
*SLIT_SPEC	=  0, 1.000mm, 1, 0.000000
*SLIT_SPEC	=  1, 10.000mm, 10, 0.000000
*SLIT_SPEC	=  2, 10.000mm, 10, 0.000000
*KV		=  45
*MA		=  200
*LOW		=  0.000000
*HIGH		=  0.000000
*CTEMPER	=  0, 0.000000
*CTEMPER	=  1, 0.000000
*CTEMPER	=  2, 0.000000
*PAREX		=  0, 0.000000
*PAREX		=  1, 0.000000
*PAREX		=  2, 0.000000
*PAREX		=  3, 0.000000
*PAREX		=  4, 0.000000
*PAREX		=  5, 0.000000
*PAREX		=  6, 0.000000
*PAREX		=  7, 0.000000
*PAREX		=  8, 0.000000
*PAREX		=  9, 0.000000
*PAREX		=  10, 0.000000
*PAREX		=  11, 0.000000
*PAREX		=  12, 0.000000
*PAREX		=  13, 0.000000
*PAREX		=  14, 0.000000
*PAREX		=  15, 0.000000
*FULL_SCALE	=  26910
*INDEX		=  0, 0, 0
*COUNT		=  3001
54, 70, 65, 59
57, 66, 49, 70
67, 69, 68, 66
67, 63, 69, 50
59, 67, 81, 65
57, 63, 66, 54
71, 68, 58, 55
53, 71, 64, 78
50, 53, 58, 49
59, 54, 58, 60
63, 49, 73, 65
62, 63, 83, 78
78, 91, 81, 83
86, 88, 86, 90
78, 78, 68, 65
67, 65, 64, 67
67, 63, 55, 68
55, 45, 53, 63
50, 50, 49, 58
61, 53, 60, 44
54, 61, 66, 60
48, 52, 67, 67
67, 51, 59, 61
52, 54, 46, 64
61, 60, 54, 47
49, 42, 77, 56
66, 51, 66, 71
55, 60, 59, 51
68, 50, 56, 57
49, 64, 52, 52
51, 53, 57, 57
72, 60, 63, 50
65, 50, 59, 50
60, 54, 57, 59
57, 55, 58, 61
44, 60, 56, 54
56, 58, 50, 54
42, 48, 50, 54
46, 57, 43, 54
68, 57, 40, 60
44, 47, 54, 50
42, 57, 53, 46
64, 56, 39, 46
47, 48, 51, 43
51, 54, 45, 49
47, 46, 54, 48
50, 60, 45, 51
47, 59, 52, 50
53, 54, 55, 52
53, 62, 59, 45
54, 43, 53, 58
53, 45, 60, 53
59, 41, 43, 47
43, 59, 45, 51
39, 48, 41, 45
44, 42, 61, 50
42, 44, 49, 39
48, 39, 50, 31
51, 51, 44, 55
50, 35, 47, 50
45, 45, 51, 42
38, 52, 54, 38
59, 51, 69, 47
46, 49, 52, 39
60, 50, 45, 50
51, 51, 43, 47
41, 45, 56, 45
56, 56, 41, 36
53, 36, 46, 59
82, 70, 69, 76
73, 88, 111, 108
104, 130, 119, 108
111, 89, 109, 63
62, 61, 64, 51
59, 67, 46, 51
41, 43, 40, 48
54, 35, 49, 54
47, 48, 47, 48
42, 34, 40, 60
46, 45, 38, 43
39, 51, 48, 49
40, 45, 40, 41
42, 45, 44, 38
43, 42, 28, 37
41, 48, 53, 42
35, 36, 38, 45
56, 49, 34, 33
52, 35, 48, 41
40, 43, 60, 44
50, 42, 45, 43
31, 43, 28, 48
35, 51, 58, 42
45, 49, 38, 32
44, 47, 41, 38
34, 40, 52, 42
45, 54, 40, 54
63, 49, 68, 60
53, 66, 80, 94
105, 110, 124, 137
145, 124, 113, 101
105, 85, 66, 87
49, 66, 60, 50
53, 66, 44, 41
51, 40, 50, 40
44, 46, 32, 39
59, 47, 46, 40
38, 42, 32, 29
35, 44, 31, 37
40, 40, 40, 50
43, 32, 38, 39
36, 47, 35, 34
43, 34, 53, 48
45, 43, 41, 46
46, 34, 38, 40
55, 47, 50, 37
39, 37, 42, 42
49, 40, 36, 34
39, 40, 40, 37
47, 37, 52, 43
43, 41, 38, 40
58, 45, 57, 71
52, 65, 74, 90
82, 100, 126, 134
134, 149, 158, 130
135, 135, 108, 104
102, 95, 78, 60
62, 41, 39, 40
35, 39, 33, 41
30, 45, 49, 34
47, 50, 32, 36
26, 44, 35, 43
38, 34, 36, 50
40, 33, 30, 41
32, 43, 35, 44
52, 27, 41, 41
41, 34, 37, 48
31, 42, 33, 42
31, 35, 44, 33
34, 36, 37, 30
34, 40, 33, 36
33, 36, 37, 40
44, 38, 28, 42
36, 39, 36, 45
37, 29, 28, 35
37, 30, 31, 33
36, 36, 41, 44
29, 38, 38, 42
37, 52, 43, 45
44, 37, 32, 29
22, 48, 41, 36
35, 31, 38, 43
39, 35, 37, 39
41, 47, 43, 40
35, 33, 32, 41
34, 33, 42, 45
47, 30, 35, 27
45, 33, 38, 48
42, 38, 30, 39
33, 34, 33, 32
42, 40, 47, 39
41, 35, 34, 38
48, 53, 34, 43
26, 42, 42, 52
47, 49, 61, 42
63, 43, 70, 64
72, 112, 119, 118
145, 183, 186, 233
303, 346, 423, 437
565, 559, 544, 511
534, 544, 460, 396
342, 312, 249, 206
185, 174, 145, 132
123, 119, 133, 108
109, 111, 147, 113
125, 128, 140, 161
151, 233, 243, 287
361, 414, 514, 657
791, 949, 1211, 1511
1647, 1824, 2044, 2058
1809, 1711, 1439, 1275
1054, 853, 688, 524
392, 311, 264, 238
198, 198, 163, 130
112, 102, 121, 115
105, 108, 101, 116
78, 112, 98, 121
123, 137, 143, 151
155, 175, 182, 173
176, 201, 196, 188
178, 176, 190, 186
174, 179, 146, 187
148, 170, 169, 138
158, 197, 184, 173
224, 201, 228, 262
346, 404, 470, 555
686, 858, 1093, 1389
1686, 2088, 2894, 3396
4247, 4725, 5209, 5382
5252, 4969, 4523, 4176
3595, 2895, 2454, 1781
1441, 1084, 833, 626
483, 437, 339, 279
226, 194, 174, 146
120, 123, 121, 95
91, 90, 99, 80
65, 80, 78, 63
78, 76, 62, 86
78, 85, 83, 94
108, 118, 120, 124
133, 119, 115, 136
138, 125, 119, 99
96, 92, 76, 76
57, 69, 71, 58
52, 40, 58, 50
48, 43, 42, 51
44, 45, 47, 55
54, 49, 47, 58
44, 31, 56, 51
54, 38, 67, 49
54, 59, 57, 55
63, 57, 70, 82
106, 97, 111, 110
100, 117, 145, 114
142, 113, 140, 125
117, 149, 157, 140
173, 180, 174, 208
256, 256, 299, 381
472, 595, 728, 793
1016, 1253, 1499, 1524
1595, 1620, 1458, 1415
1234, 1176, 1003, 848
688, 519, 412, 317
254, 195, 180, 170
149, 104, 96, 97
97, 84, 75, 105
90, 76, 84, 91
88, 64, 78, 73
70, 72, 68, 58
59, 63, 36, 49
53, 38, 44, 50
46, 38, 40, 45
30, 46, 41, 41
33, 30, 31, 35
24, 26, 30, 20
33, 28, 25, 42
30, 33, 33, 33
26, 29, 24, 27
32, 35, 38, 35
30, 28, 35, 40
41, 24, 28, 31
26, 35, 31, 35
38, 27, 30, 34
27, 32, 32, 33
29, 34, 40, 46
29, 30, 35, 28
33, 36, 30, 33
32, 27, 26, 34
28, 20, 37, 32
31, 33, 39, 33
32, 42, 39, 36
35, 41, 37, 39
34, 43, 42, 41
62, 44, 46, 59
55, 69, 66, 80
80, 86, 81, 138
121, 136, 151, 149
164, 192, 155, 176
178, 222, 185, 227
244, 264, 311, 374
450, 494, 559, 563
593, 525, 476, 450
439, 382, 314, 280
202, 184, 142, 141
98, 88, 72, 72
70, 72, 56, 41
54, 49, 54, 61
52, 45, 39, 56
32, 39, 36, 39
47, 45, 38, 34
33, 36, 39, 41
43, 33, 39, 46
41, 48, 41, 40
45, 66, 56, 63
53, 65, 56, 50
40, 46, 60, 56
33, 55, 45, 44
36, 42, 46, 33
43, 51, 53, 42
40, 53, 46, 60
47, 65, 49, 65
53, 65, 77, 95
83, 112, 123, 152
151, 186, 219, 256
271, 318, 360, 366
375, 360, 320, 318
254, 245, 231, 203
185, 134, 128, 90
88, 80, 73, 54
69, 54, 56, 36
44, 49, 53, 30
36, 50, 43, 48
46, 58, 47, 66
63, 68, 91, 67
77, 100, 114, 122
121, 137, 147, 130
116, 132, 121, 107
93, 65, 78, 78
67, 63, 63, 50
43, 52, 48, 45
41, 35, 47, 33
35, 36, 35, 47
47, 33, 40, 51
36, 38, 42, 36
38, 36, 40, 36
41, 40, 33, 47
55, 55, 63, 59
77, 75, 76, 96
93, 138, 147, 182
187, 235, 216, 233
204, 194, 197, 150
158, 153, 120, 103
84, 76, 80, 50
57, 54, 45, 44
54, 32, 42, 36
44, 43, 33, 32
28, 36, 40, 31
36, 31, 31, 37
46, 31, 38, 32
40, 27, 40, 25
35, 36, 44, 44
40, 45, 44, 39
41, 46, 63, 64
70, 77, 113, 91
120, 128, 123, 112
129, 136, 136, 127
98, 112, 96, 77
83, 70, 54, 66
58, 47, 56, 48
37, 23, 30, 30
35, 35, 21, 36
34, 31, 32, 24
29, 22, 28, 30
31, 21, 17, 27
22, 31, 26, 27
29, 23, 20, 35
28, 29, 29, 19
36, 40, 19, 35
24, 24, 25, 23
18, 27, 37, 31
22, 35, 31, 21
33, 19, 23, 29
33, 25, 28, 27
16, 26, 25, 30
30, 19, 33, 17
26, 34, 25, 21
22, 26, 36, 20
30, 22, 25, 26
19, 33, 22, 24
17, 28, 22, 15
16, 38, 22, 26
33, 23, 22, 25
24, 25, 27, 31
31, 24, 28, 33
26, 25, 25, 30
30, 30, 28, 35
20, 29, 29, 29
31, 31, 24, 31
24, 26, 30, 22
29, 15, 25, 27
27, 39, 26, 23
25, 29, 35, 33
24, 33, 27, 17
22, 28, 33, 15
32, 27, 29, 34
18, 28, 36, 41
26, 22, 26, 27
34, 36, 34, 31
46, 32, 32, 33
41, 48, 45, 57
54, 47, 63, 75
79, 90, 85, 91
117, 109, 119, 148
152, 143, 166, 157
173, 193, 159, 175
145, 139, 130, 131
125, 121, 101, 94
85, 67, 69, 56
61, 56, 42, 63
36, 48, 49, 43
37, 45, 42, 38
39, 36, 39, 53
41, 35, 44, 46
46, 53, 45, 69
49, 73, 86, 81
78, 82, 83, 95
91, 86, 90, 79
96, 78, 84, 70
55, 53, 71, 57
53, 55, 47, 37
45, 26, 42, 32
29, 30, 30, 39
22, 36, 30, 31
32, 36, 27, 35
30, 28, 36, 29
27, 33, 47, 51
38, 41, 50, 44
59, 56, 62, 77
73, 70, 73, 74
75, 76, 93, 84
87, 93, 106, 108
118, 104, 133, 115
103, 110, 93, 103
80, 89, 103, 78
93, 54, 55, 59
54, 47, 48, 43
36, 35, 35, 34
29, 36, 25, 26
29, 28, 31, 28
25, 23, 31, 32
25, 24, 30, 32
24, 37, 21, 40
23, 34, 26, 27
28, 23, 30, 25
25, 30, 27, 28
38, 36, 33, 36
29, 33, 35, 37
21, 28, 24, 31
27, 29, 32, 40
27, 34, 30, 28
37, 30, 37, 24
33, 38, 34, 44
47, 51, 37, 49
52, 60, 72, 73
73, 72, 100, 123
127, 155, 198, 207
226, 228, 232, 206
220, 181, 179, 205
199, 183, 184, 162
152, 162, 152, 129
147, 136, 162, 152
163, 161, 135, 156
115, 143, 125, 119
108, 112, 113, 101
80, 56, 65, 55
61, 45, 48, 55
34, 36, 32, 38
41, 33, 28, 36
32, 38, 21, 29
19, 32, 26, 35
41, 35, 24, 30
29, 36, 22, 30
35, 32, 31, 35
47, 46, 46, 45
29, 52, 46, 64
62, 57, 52, 47
51, 63, 53, 46
52, 43, 40, 50
37, 42, 27, 38
30, 31, 36, 35
30, 32, 38, 31
34, 25, 29, 38
36, 34, 33, 19
29, 27, 24, 29
25, 39, 31, 35
39, 29, 32, 33
45, 41, 72, 49
81, 78, 85, 94
94, 115, 143, 166
139, 147, 142, 143
164, 163, 155, 167
153, 143, 139, 109
113, 110, 87, 87
74, 84, 75, 80
63, 60, 73, 63
65, 45, 48, 50
37, 42, 44, 40
39, 44, 40, 38
35, 35, 40, 39
40, 45, 39, 36
32, 29, 41, 31
35, 29, 26, 36
39, 33, 37, 35
27, 36, 34, 28
47, 24, 30, 31
41, 34, 38, 31
40, 28, 32, 29
42, 42, 35, 34
35, 43, 32, 33
33, 34, 40, 49
36, 29, 37, 33
37, 35, 48, 48
41, 39, 51, 42
41, 41, 44, 50
43, 44, 44, 56
52, 47, 54, 67
61, 44, 62, 54
64, 81, 68, 91
81, 105, 91, 129
130, 135, 167, 202
212, 260, 297, 397
501, 541, 757, 888
1189, 1396, 1683, 1915
2124, 2308, 2319, 2169
1949, 1776, 1590, 1527
1443, 1456, 1300, 1098
924, 822, 618, 511
426, 313, 249, 210
200, 154, 129, 116
110, 97, 85, 72
82, 75, 60, 74
54, 75, 65, 36
56, 42, 58, 57
64, 53, 52, 49
46, 54, 37, 48
42, 41, 39, 44
53, 36, 35, 49
32, 35, 35, 51
39, 29, 46, 42
42, 42, 32, 33
42, 39, 44, 38
35, 35, 35, 36
35, 59, 56, 47
42, 52, 60, 53
50, 55, 62, 51
53, 52, 68, 53
47, 51, 45, 42
40, 42, 40, 29
37, 35, 39, 43
36, 32, 31, 33
35, 32, 26, 24
34, 35, 21, 41
30, 29, 26, 28
25, 26, 26, 40
35, 29, 30, 21
21, 25, 29, 30
30, 30, 25, 22
21, 24, 22, 24
33, 32, 25, 18
26, 20, 38, 34
18, 19, 27, 30
24, 17, 26, 36
20, 17, 22, 29
30, 18, 21, 20
41, 33, 24, 32
29, 27, 31, 26
33, 32, 29, 30
22, 30, 26, 38
27, 26, 32, 19
21, 32, 30, 23
28, 28, 21, 28
44, 24, 31, 42
23, 28, 22, 28
36, 16, 32, 27
29, 31, 34, 38
30, 31, 38, 32
36, 28, 26, 34
33, 22, 30, 41
29, 36, 36, 38
33, 43, 41, 47
31, 32, 43, 36
40, 37, 49, 44
29, 43, 27, 44
33, 39, 28, 32
52, 32, 38, 38
49, 39, 45, 36
43, 40, 46, 38
39, 42, 59, 41
41, 55, 61, 68
54, 56, 62, 73
81, 85, 73, 108
111, 140, 147, 153
177, 219, 228, 281
343, 391, 445, 482
420, 399, 374, 372
325, 361, 311, 340
325, 271, 237, 215
190, 160, 143, 109
113, 90, 80, 77
66, 73, 60, 51
62, 57, 50, 42
61, 50, 43, 49
43, 49, 63, 42
51, 40, 39, 46
55, 43, 36, 42
36, 40, 36, 41
33, 29, 37, 44
27, 41, 52, 42
38, 24, 44, 28
43, 29, 31, 29
31, 33, 37, 33
43, 31, 34, 32
35, 28, 32, 22
24, 26, 25, 35
37, 25, 25, 30
28, 31, 24, 21
22, 27, 28, 22
29, 32, 30, 30
29, 25, 25, 29
40, 21, 30, 42
38, 43, 40, 42
46, 63, 54, 46
53, 70, 72, 82
80, 79, 72, 75
78, 107, 78, 114
93, 76, 84, 78
88, 71, 57, 62
61, 55, 51, 48
40, 52, 51, 48
35, 47, 45, 26
35, 33, 26, 27
29, 45, 29, 28
19, 31, 32, 32
35, 27, 41, 32
29, 31, 36, 39
32, 32, 32, 28
27, 25, 34, 40
24, 19, 20, 28
37, 37, 35, 34
28, 30, 37, 30
29, 27, 33, 31
27, 31, 32, 29
28, 27, 28, 35
33, 27, 25, 32
32, 31, 36, 35
33, 34, 37, 56
62, 50, 33, 45
37, 45, 51, 50
43, 42, 47, 52
54, 46, 46, 48
40, 40, 47, 54
39, 47, 39, 38
31, 35, 35, 47
35, 36, 31, 37
29, 45, 42, 34
39, 33, 55, 50
49, 47, 52, 60
61, 69, 94, 88
98, 120, 129, 148
143, 147, 151, 128
111, 103, 114, 109
115, 111, 127, 102
104, 87, 100, 86
79, 67, 66, 66
81, 67, 75, 73
76, 85, 66, 110
115, 116, 108, 130
133, 175, 201, 265
261, 352, 427, 519
659, 839, 884, 1153
1207, 1323, 1334, 1334
1259, 1119, 1042, 918
850, 854, 895, 865
841, 797, 685, 666
515, 438, 351, 306
228, 223, 159, 177
130, 120, 92, 102
73, 87, 72, 69
49, 57, 70, 44
47, 41, 46, 42
47, 47, 59, 41
34, 47, 40, 37
46, 46, 42, 40
49, 46, 43, 49
41, 36, 44, 52
40, 57, 55, 66
52, 50, 62, 57
52, 68, 77, 69
88, 101, 106, 126
139, 142, 174, 229
204, 241, 251, 231
189, 174, 173, 159
154, 143, 157, 179
155, 181, 161, 132
103, 102, 115, 93
93, 100, 86, 77
82, 110, 68, 98
101, 98, 115, 119
134, 118, 157, 167
179, 181, 205, 199
199, 180, 196, 182
143, 145, 157, 146
132, 135, 150, 149
136, 121, 117, 81
98, 66, 70, 67
60, 61, 55, 57
62, 43, 53, 47
53, 54, 48, 32
43, 46, 31, 43
46, 36, 40, 29
41, 43, 41, 30
43, 37, 49, 40
31, 43, 45, 51
37, 51, 52, 51
64, 65, 61, 97
115, 142, 139, 175
152, 152, 156, 163
170, 173, 155, 164
173, 135, 151, 136
149, 144, 114, 105
89, 114, 105, 97
86, 92, 72, 55
59, 52, 42, 55
53, 42, 54, 31
48, 39, 36, 34
33, 33, 42, 31
47, 29, 42, 32
37, 34, 35, 42
26, 33, 44, 40
19, 41, 43, 43
39, 62, 35, 43
52, 54, 36, 41
43, 47, 44, 53
42, 60, 42, 41
55, 42, 47, 55
53, 53, 50, 44
45, 39, 49, 38
35, 41, 38, 35
40, 31, 27, 24
33, 40, 35, 34
26, 35, 35, 31
29, 32, 29, 21
33, 38, 33, 26
27, 27, 35, 30
34, 27, 35, 39
21, 26, 30, 31
29, 32, 29, 20
28, 29, 36, 34
28, 38, 43, 40
37, 36, 57, 66
80, 72, 77, 70
68, 84, 64, 71
74, 65, 81, 76
53, 49, 61, 70
75, 55, 61, 56
56, 42, 40, 39
53, 30, 31, 36
36, 29, 27, 26
32, 27, 37, 29
35, 30, 29, 31
34, 47, 25, 25
28, 23, 28, 22
23, 33, 24, 31
31, 38, 36, 33
18, 34, 27, 29
25, 31, 30, 32
31, 30, 31, 26
30, 24, 27, 30
23, 32, 23, 27
28, 22, 25, 18
23, 17, 25, 30
32
*END

*EOF