File: Experimental data/EDX/2/Map Sum Spectrum.txt
#FORMAT      : EMSA/MAS Spectral Data File
#VERSION     : 1.0
#TITLE       : Map Sum Spectrum
#DATE        : 21-APR-2024
#TIME        : 20:36
#OWNER       :
#NPOINTS     : 1024.0
#NCOLUMNS    : 1.0
#XUNITS      : keV
#YUNITS      : counts
#DATATYPE    : XY
#XPERCHAN    : 0.01
#OFFSET      : -0.1
#SIGNALTYPE  : EDS
#CHOFFSET    : 10.0
#LIVETIME    : 58.9824
#REALTIME    : 153.483
#BEAMKV      : 10.0
#PROBECUR    : 0.0
#MAGCAM      : 3292.0
#XTILTSTGE   : 0.0
#AZIMANGLE   : 0.0
#ELEVANGLE   : 35.0
#XPOSITION mm: 57.1695
#YPOSITION mm: 65.3295
#ZPOSITION mm: 35.4358
##OXINSTPT   : 6
##OXINSTSTROB: 30.09
##OXINSTNDET : 1
##OXINSTELEMS: 6,8,9,13,14,19,11,24,26
##OXINSTLABEL: 6, 0.277, C
##OXINSTLABEL: 8, 0.525, O
##OXINSTLABEL: 9, 0.677, F
##OXINSTLABEL: 13, 1.487, Al
##OXINSTLABEL: 14, 1.740, Si
##OXINSTLABEL: 19, 3.314, K
##OXINSTLABEL: 19, 3.590, K
##OXINSTLABEL: 19, 0.260, K
##OXINSTLABEL: 11, 1.041, Na
##OXINSTLABEL: 24, 5.415, Cr
##OXINSTLABEL: 24, 5.947, Cr
##OXINSTLABEL: 24, 0.573, Cr
##OXINSTLABEL: 24, 0.500, Cr
##OXINSTLABEL: 26, 6.404, Fe
##OXINSTLABEL: 26, 7.058, Fe
##OXINSTLABEL: 26, 0.703, Fe
##OXINSTLABEL: 26, 0.615, Fe
#SPECTRUM    : Spectral Data Starts Here
-0.10000, 0.0
-0.09000, 0.0
-0.08000, 0.0
-0.07000, 0.0
-0.06000, 0.0
-0.05000, 3.0
-0.04000, 33.0
-0.03000, 245.0
-0.02000, 984.0
-0.01000, 2336.0
0.00000, 3613.0
0.01000, 3826.0
0.02000, 2994.0
0.03000, 1848.0
0.04000, 1067.0
0.05000, 912.0
0.06000, 1383.0
0.07000, 2524.0
0.08000, 4225.0
0.09000, 5166.0
0.10000, 4691.0
0.11000, 3124.0
0.12000, 1725.0
0.13000, 1034.0
0.14000, 805.0
0.15000, 733.0
0.16000, 738.0
0.17000, 815.0
0.18000, 903.0
0.19000, 999.0
0.20000, 1112.0
0.21000, 1557.0
0.22000, 2479.0
0.23000, 4548.0
0.24000, 8753.0
0.25000, 15783.0
0.26000, 23973.0
0.27000, 29291.0
0.28000, 27190.0
0.29000, 18872.0
0.30000, 10083.0
0.31000, 4310.0
0.32000, 1672.0
0.33000, 869.0
0.34000, 765.0
0.35000, 817.0
0.36000, 877.0
0.37000, 889.0
0.38000, 921.0
0.39000, 981.0
0.40000, 1052.0
0.41000, 1112.0
0.42000, 1238.0
0.43000, 1411.0
0.44000, 1508.0
0.45000, 1719.0
0.46000, 2120.0
0.47000, 2800.0
0.48000, 4220.0
0.49000, 6954.0
0.50000, 11045.0
0.51000, 15594.0
0.52000, 18414.0
0.53000, 17879.0
0.54000, 14311.0
0.55000, 9720.0
0.56000, 5814.0
0.57000, 3574.0
0.58000, 2684.0
0.59000, 2497.0
0.60000, 2579.0
0.61000, 2854.0
0.62000, 3560.0
0.63000, 4891.0
0.64000, 7471.0
0.65000, 11707.0
0.66000, 16688.0
0.67000, 20578.0
0.68000, 21756.0
0.69000, 19611.0
0.70000, 15159.0
0.71000, 10434.0
0.72000, 6888.0
0.73000, 4827.0
0.74000, 3707.0
0.75000, 3312.0
0.76000, 3159.0
0.77000, 3105.0
0.78000, 3110.0
0.79000, 3112.0
0.80000, 3143.0
0.81000, 3193.0
0.82000, 3307.0
0.83000, 3419.0
0.84000, 3462.0
0.85000, 3472.0
0.86000, 3499.0
0.87000, 3513.0
0.88000, 3506.0
0.89000, 3463.0
0.90000, 3486.0
0.91000, 3546.0
0.92000, 3620.0
0.93000, 3696.0
0.94000, 3770.0
0.95000, 3705.0
0.96000, 3699.0
0.97000, 3653.0
0.98000, 3624.0
0.99000, 3848.0
1.00000, 4212.0
1.01000, 4728.0
1.02000, 5413.0
1.03000, 6163.0
1.04000, 6557.0
1.05000, 6499.0
1.06000, 6098.0
1.07000, 5465.0
1.08000, 4803.0
1.09000, 4247.0
1.10000, 3838.0
1.11000, 3577.0
1.12000, 3400.0
1.13000, 3423.0
1.14000, 3416.0
1.15000, 3434.0
1.16000, 3519.0
1.17000, 3476.0
1.18000, 3389.0
1.19000, 3386.0
1.20000, 3378.0
1.21000, 3393.0
1.22000, 3498.0
1.23000, 3484.0
1.24000, 3438.0
1.25000, 3409.0
1.26000, 3382.0
1.27000, 3363.0
1.28000, 3344.0
1.29000, 3365.0
1.30000, 3334.0
1.31000, 3351.0
1.32000, 3384.0
1.33000, 3395.0
1.34000, 3403.0
1.35000, 3356.0
1.36000, 3355.0
1.37000, 3406.0
1.38000, 3420.0
1.39000, 3433.0
1.40000, 3542.0
1.41000, 3752.0
1.42000, 4351.0
1.43000, 5325.0
1.44000, 7078.0
1.45000, 9755.0
1.46000, 12963.0
1.47000, 16371.0
1.48000, 18949.0
1.49000, 20274.0
1.50000, 19563.0
1.51000, 17088.0
1.52000, 14004.0
1.53000, 10947.0
1.54000, 8322.0
1.55000, 6455.0
1.56000, 5347.0
1.57000, 4651.0
1.58000, 4291.0
1.59000, 4083.0
1.60000, 3933.0
1.61000, 3751.0
1.62000, 3675.0
1.63000, 3770.0
1.64000, 4356.0
1.65000, 6139.0
1.66000, 10136.0
1.67000, 18647.0
1.68000, 34648.0
1.69000, 61617.0
1.70000, 99883.0
1.71000, 147535.0
1.72000, 197404.0
1.73000, 238060.0
1.74000, 259091.0
1.75000, 253746.0
1.76000, 223890.0
1.77000, 178842.0
1.78000, 130090.0
1.79000, 86676.0
1.80000, 54747.0
1.81000, 34431.0
1.82000, 23202.0
1.83000, 17612.0
1.84000, 14488.0
1.85000, 12177.0
1.86000, 10182.0
1.87000, 8261.0
1.88000, 6358.0
1.89000, 4912.0
1.90000, 3982.0
1.91000, 3370.0
1.92000, 2984.0
1.93000, 2819.0
1.94000, 2681.0
1.95000, 2570.0
1.96000, 2508.0
1.97000, 2475.0
1.98000, 2392.0
1.99000, 2368.0
2.00000, 2367.0
2.01000, 2331.0
2.02000, 2244.0
2.03000, 2168.0
2.04000, 2030.0
2.05000, 1932.0
2.06000, 1780.0
2.07000, 1678.0
2.08000, 1599.0
2.09000, 1555.0
2.10000, 1509.0
2.11000, 1459.0
2.12000, 1491.0
2.13000, 1480.0
2.14000, 1455.0
2.15000, 1457.0
2.16000, 1451.0
2.17000, 1449.0
2.18000, 1475.0
2.19000, 1505.0
2.20000, 1502.0
2.21000, 1473.0
2.22000, 1472.0
2.23000, 1443.0
2.24000, 1499.0
2.25000, 1536.0
2.26000, 1518.0
2.27000, 1565.0
2.28000, 1542.0
2.29000, 1536.0
2.30000, 1559.0
2.31000, 1553.0
2.32000, 1503.0
2.33000, 1488.0
2.34000, 1462.0
2.35000, 1454.0
2.36000, 1454.0
2.37000, 1472.0
2.38000, 1467.0
2.39000, 1523.0
2.40000, 1515.0
2.41000, 1522.0
2.42000, 1539.0
2.43000, 1497.0
2.44000, 1464.0
2.45000, 1422.0
2.46000, 1469.0
2.47000, 1445.0
2.48000, 1404.0
2.49000, 1342.0
2.50000, 1321.0
2.51000, 1287.0
2.52000, 1302.0
2.53000, 1302.0
2.54000, 1305.0
2.55000, 1326.0
2.56000, 1301.0
2.57000, 1303.0
2.58000, 1275.0
2.59000, 1281.0
2.60000, 1290.0
2.61000, 1271.0
2.62000, 1278.0
2.63000, 1306.0
2.64000, 1346.0
2.65000, 1334.0
2.66000, 1271.0
2.67000, 1247.0
2.68000, 1243.0
2.69000, 1301.0
2.70000, 1286.0
2.71000, 1252.0
2.72000, 1269.0
2.73000, 1242.0
2.74000, 1215.0
2.75000, 1264.0
2.76000, 1224.0
2.77000, 1169.0
2.78000, 1228.0
2.79000, 1249.0
2.80000, 1228.0
2.81000, 1212.0
2.82000, 1246.0
2.83000, 1213.0
2.84000, 1172.0
2.85000, 1185.0
2.86000, 1230.0
2.87000, 1244.0
2.88000, 1193.0
2.89000, 1190.0
2.90000, 1218.0
2.91000, 1193.0
2.92000, 1159.0
2.93000, 1152.0
2.94000, 1197.0
2.95000, 1168.0
2.96000, 1180.0
2.97000, 1159.0
2.98000, 1166.0
2.99000, 1170.0
3.00000, 1173.0
3.01000, 1167.0
3.02000, 1125.0
3.03000, 1109.0
3.04000, 1095.0
3.05000, 1082.0
3.06000, 1075.0
3.07000, 1077.0
3.08000, 1111.0
3.09000, 1075.0
3.10000, 1075.0
3.11000, 1090.0
3.12000, 1099.0
3.13000, 1107.0
3.14000, 1050.0
3.15000, 1053.0
3.16000, 1065.0
3.17000, 1076.0
3.18000, 1142.0
3.19000, 1222.0
3.20000, 1280.0
3.21000, 1369.0
3.22000, 1544.0
3.23000, 1886.0
3.24000, 2327.0
3.25000, 2912.0
3.26000, 3691.0
3.27000, 4695.0
3.28000, 5812.0
3.29000, 6882.0
3.30000, 7846.0
3.31000, 8547.0
3.32000, 8626.0
3.33000, 8355.0
3.34000, 7851.0
3.35000, 6858.0
3.36000, 5768.0
3.37000, 4593.0
3.38000, 3604.0
3.39000, 2823.0
3.40000, 2279.0
3.41000, 1960.0
3.42000, 1904.0
3.43000, 1972.0
3.44000, 2068.0
3.45000, 2254.0
3.46000, 2466.0
3.47000, 2664.0
3.48000, 2831.0
3.49000, 2857.0
3.50000, 2770.0
3.51000, 2602.0
3.52000, 2451.0
3.53000, 2305.0
3.54000, 2117.0
3.55000, 2009.0
3.56000, 1916.0
3.57000, 1895.0
3.58000, 1894.0
3.59000, 1914.0
3.60000, 1944.0
3.61000, 1843.0
3.62000, 1687.0
3.63000, 1563.0
3.64000, 1402.0
3.65000, 1248.0
3.66000, 1152.0
3.67000, 1056.0
3.68000, 978.0
3.69000, 910.0
3.70000, 881.0
3.71000, 854.0
3.72000, 842.0
3.73000, 804.0
3.74000, 780.0
3.75000, 798.0
3.76000, 799.0
3.77000, 817.0
3.78000, 782.0
3.79000, 778.0
3.80000, 783.0
3.81000, 781.0
3.82000, 775.0
3.83000, 791.0
3.84000, 778.0
3.85000, 762.0
3.86000, 738.0
3.87000, 707.0
3.88000, 744.0
3.89000, 763.0
3.90000, 722.0
3.91000, 741.0
3.92000, 751.0
3.93000, 723.0
3.94000, 731.0
3.95000, 744.0
3.96000, 751.0
3.97000, 755.0
3.98000, 761.0
3.99000, 712.0
4.00000, 729.0
4.01000, 755.0
4.02000, 738.0
4.03000, 699.0
4.04000, 679.0
4.05000, 672.0
4.06000, 665.0
4.07000, 680.0
4.08000, 698.0
4.09000, 693.0
4.10000, 696.0
4.11000, 667.0
4.12000, 656.0
4.13000, 668.0
4.14000, 720.0
4.15000, 696.0
4.16000, 648.0
4.17000, 633.0
4.18000, 648.0
4.19000, 665.0
4.20000, 639.0
4.21000, 615.0
4.22000, 645.0
4.23000, 648.0
4.24000, 618.0
4.25000, 638.0
4.26000, 647.0
4.27000, 623.0
4.28000, 625.0
4.29000, 650.0
4.30000, 639.0
4.31000, 635.0
4.32000, 601.0
4.33000, 583.0
4.34000, 615.0
4.35000, 614.0
4.36000, 592.0
4.37000, 618.0
4.38000, 614.0
4.39000, 599.0
4.40000, 615.0
4.41000, 584.0
4.42000, 592.0
4.43000, 599.0
4.44000, 598.0
4.45000, 566.0
4.46000, 572.0
4.47000, 578.0
4.48000, 603.0
4.49000, 594.0
4.50000, 580.0
4.51000, 591.0
4.52000, 599.0
4.53000, 580.0
4.54000, 555.0
4.55000, 550.0
4.56000, 550.0
4.57000, 549.0
4.58000, 562.0
4.59000, 558.0
4.60000, 540.0
4.61000, 528.0
4.62000, 540.0
4.63000, 534.0
4.64000, 519.0
4.65000, 537.0
4.66000, 546.0
4.67000, 550.0
4.68000, 553.0
4.69000, 558.0
4.70000, 560.0
4.71000, 548.0
4.72000, 529.0
4.73000, 541.0
4.74000, 522.0
4.75000, 508.0
4.76000, 540.0
4.77000, 556.0
4.78000, 526.0
4.79000, 500.0
4.80000, 521.0
4.81000, 508.0
4.82000, 527.0
4.83000, 525.0
4.84000, 521.0
4.85000, 507.0
4.86000, 511.0
4.87000, 507.0
4.88000, 478.0
4.89000, 493.0
4.90000, 488.0
4.91000, 469.0
4.92000, 477.0
4.93000, 471.0
4.94000, 455.0
4.95000, 478.0
4.96000, 486.0
4.97000, 503.0
4.98000, 490.0
4.99000, 502.0
5.00000, 498.0
5.01000, 496.0
5.02000, 518.0
5.03000, 535.0
5.04000, 550.0
5.05000, 511.0
5.06000, 521.0
5.07000, 545.0
5.08000, 544.0
5.09000, 501.0
5.10000, 512.0
5.11000, 504.0
5.12000, 487.0
5.13000, 479.0
5.14000, 464.0
5.15000, 437.0
5.16000, 462.0
5.17000, 455.0
5.18000, 452.0
5.19000, 461.0
5.20000, 444.0
5.21000, 447.0
5.22000, 444.0
5.23000, 449.0
5.24000, 439.0
5.25000, 465.0
5.26000, 441.0
5.27000, 410.0
5.28000, 422.0
5.29000, 442.0
5.30000, 432.0
5.31000, 416.0
5.32000, 427.0
5.33000, 455.0
5.34000, 441.0
5.35000, 424.0
5.36000, 448.0
5.37000, 440.0
5.38000, 464.0
5.39000, 446.0
5.40000, 457.0
5.41000, 464.0
5.42000, 454.0
5.43000, 458.0
5.44000, 441.0
5.45000, 425.0
5.46000, 411.0
5.47000, 406.0
5.48000, 420.0
5.49000, 398.0
5.50000, 382.0
5.51000, 372.0
5.52000, 365.0
5.53000, 366.0
5.54000, 379.0
5.55000, 385.0
5.56000, 355.0
5.57000, 333.0
5.58000, 350.0
5.59000, 378.0
5.60000, 379.0
5.61000, 342.0
5.62000, 347.0
5.63000, 367.0
5.64000, 345.0
5.65000, 328.0
5.66000, 344.0
5.67000, 344.0
5.68000, 351.0
5.69000, 357.0
5.70000, 321.0
5.71000, 324.0
5.72000, 355.0
5.73000, 372.0
5.74000, 360.0
5.75000, 354.0
5.76000, 348.0
5.77000, 338.0
5.78000, 317.0
5.79000, 315.0
5.80000, 316.0
5.81000, 338.0
5.82000, 355.0
5.83000, 349.0
5.84000, 346.0
5.85000, 331.0
5.86000, 340.0
5.87000, 334.0
5.88000, 338.0
5.89000, 348.0
5.90000, 320.0
5.91000, 314.0
5.92000, 318.0
5.93000, 309.0
5.94000, 296.0
5.95000, 297.0
5.96000, 298.0
5.97000, 319.0
5.98000, 319.0
5.99000, 301.0
6.00000, 312.0
6.01000, 311.0
6.02000, 303.0
6.03000, 292.0
6.04000, 279.0
6.05000, 292.0
6.06000, 293.0
6.07000, 308.0
6.08000, 304.0
6.09000, 292.0
6.10000, 292.0
6.11000, 301.0
6.12000, 285.0
6.13000, 291.0
6.14000, 281.0
6.15000, 272.0
6.16000, 289.0
6.17000, 291.0
6.18000, 273.0
6.19000, 269.0
6.20000, 275.0
6.21000, 277.0
6.22000, 261.0
6.23000, 258.0
6.24000, 263.0
6.25000, 248.0
6.26000, 261.0
6.27000, 269.0
6.28000, 253.0
6.29000, 257.0
6.30000, 283.0
6.31000, 281.0
6.32000, 268.0
6.33000, 273.0
6.34000, 278.0
6.35000, 290.0
6.36000, 273.0
6.37000, 260.0
6.38000, 268.0
6.39000, 268.0
6.40000, 286.0
6.41000, 295.0
6.42000, 302.0
6.43000, 298.0
6.44000, 283.0
6.45000, 293.0
6.46000, 270.0
6.47000, 265.0
6.48000, 273.0
6.49000, 257.0
6.50000, 261.0
6.51000, 252.0
6.52000, 235.0
6.53000, 260.0
6.54000, 237.0
6.55000, 227.0
6.56000, 230.0
6.57000, 241.0
6.58000, 228.0
6.59000, 225.0
6.60000, 224.0
6.61000, 234.0
6.62000, 235.0
6.63000, 258.0
6.64000, 238.0
6.65000, 238.0
6.66000, 239.0
6.67000, 232.0
6.68000, 222.0
6.69000, 211.0
6.70000, 228.0
6.71000, 230.0
6.72000, 218.0
6.73000, 203.0
6.74000, 208.0
6.75000, 213.0
6.76000, 208.0
6.77000, 213.0
6.78000, 212.0
6.79000, 206.0
6.80000, 220.0
6.81000, 207.0
6.82000, 205.0
6.83000, 210.0
6.84000, 208.0
6.85000, 204.0
6.86000, 214.0
6.87000, 195.0
6.88000, 199.0
6.89000, 216.0
6.90000, 210.0
6.91000, 212.0
6.92000, 211.0
6.93000, 207.0
6.94000, 200.0
6.95000, 207.0
6.96000, 218.0
6.97000, 206.0
6.98000, 207.0
6.99000, 205.0
7.00000, 202.0
7.01000, 208.0
7.02000, 195.0
7.03000, 182.0
7.04000, 181.0
7.05000, 182.0
7.06000, 192.0
7.07000, 206.0
7.08000, 192.0
7.09000, 181.0
7.10000, 168.0
7.11000, 180.0
7.12000, 197.0
7.13000, 191.0
7.14000, 170.0
7.15000, 178.0
7.16000, 179.0
7.17000, 170.0
7.18000, 185.0
7.19000, 185.0
7.20000, 176.0
7.21000, 173.0
7.22000, 168.0
7.23000, 170.0
7.24000, 160.0
7.25000, 171.0
7.26000, 177.0
7.27000, 176.0
7.28000, 178.0
7.29000, 175.0
7.30000, 178.0
7.31000, 167.0
7.32000, 163.0
7.33000, 151.0
7.34000, 156.0
7.35000, 167.0
7.36000, 155.0
7.37000, 165.0
7.38000, 173.0
7.39000, 151.0
7.40000, 147.0
7.41000, 148.0
7.42000, 134.0
7.43000, 140.0
7.44000, 161.0
7.45000, 166.0
7.46000, 141.0
7.47000, 138.0
7.48000, 147.0
7.49000, 155.0
7.50000, 146.0
7.51000, 144.0
7.52000, 150.0
7.53000, 152.0
7.54000, 148.0
7.55000, 139.0
7.56000, 127.0
7.57000, 143.0
7.58000, 148.0
7.59000, 141.0
7.60000, 143.0
7.61000, 141.0
7.62000, 149.0
7.63000, 142.0
7.64000, 138.0
7.65000, 144.0
7.66000, 135.0
7.67000, 119.0
7.68000, 123.0
7.69000, 136.0
7.70000, 129.0
7.71000, 126.0
7.72000, 137.0
7.73000, 133.0
7.74000, 121.0
7.75000, 129.0
7.76000, 133.0
7.77000, 141.0
7.78000, 135.0
7.79000, 129.0
7.80000, 130.0
7.81000, 118.0
7.82000, 127.0
7.83000, 120.0
7.84000, 123.0
7.85000, 127.0
7.86000, 108.0
7.87000, 106.0
7.88000, 114.0
7.89000, 113.0
7.90000, 115.0
7.91000, 109.0
7.92000, 102.0
7.93000, 104.0
7.94000, 111.0
7.95000, 112.0
7.96000, 111.0
7.97000, 99.0
7.98000, 103.0
7.99000, 110.0
8.00000, 115.0
8.01000, 116.0
8.02000, 110.0
8.03000, 114.0
8.04000, 97.0
8.05000, 93.0
8.06000, 106.0
8.07000, 108.0
8.08000, 112.0
8.09000, 118.0
8.10000, 110.0
8.11000, 92.0
8.12000, 94.0
8.13000, 97.0
8.14000, 101.0
8.15000, 102.0
8.16000, 102.0
8.17000, 112.0
8.18000, 97.0
8.19000, 84.0
8.20000, 86.0
8.21000, 93.0
8.22000, 98.0
8.23000, 95.0
8.24000, 84.0
8.25000, 85.0
8.26000, 87.0
8.27000, 84.0
8.28000, 79.0
8.29000, 84.0
8.30000, 82.0
8.31000, 80.0
8.32000, 87.0
8.33000, 88.0
8.34000, 82.0
8.35000, 76.0
8.36000, 81.0
8.37000, 92.0
8.38000, 91.0
8.39000, 72.0
8.40000, 72.0
8.41000, 77.0
8.42000, 70.0
8.43000, 70.0
8.44000, 79.0
8.45000, 79.0
8.46000, 77.0
8.47000, 75.0
8.48000, 68.0
8.49000, 67.0
8.50000, 75.0
8.51000, 63.0
8.52000, 66.0
8.53000, 79.0
8.54000, 71.0
8.55000, 63.0
8.56000, 68.0
8.57000, 65.0
8.58000, 73.0
8.59000, 65.0
8.60000, 62.0
8.61000, 59.0
8.62000, 59.0
8.63000, 67.0
8.64000, 71.0
8.65000, 75.0
8.66000, 72.0
8.67000, 65.0
8.68000, 67.0
8.69000, 61.0
8.70000, 58.0
8.71000, 58.0
8.72000, 70.0
8.73000, 68.0
8.74000, 58.0
8.75000, 59.0
8.76000, 62.0
8.77000, 57.0
8.78000, 52.0
8.79000, 58.0
8.80000, 55.0
8.81000, 53.0
8.82000, 56.0
8.83000, 56.0
8.84000, 54.0
8.85000, 63.0
8.86000, 66.0
8.87000, 65.0
8.88000, 58.0
8.89000, 52.0
8.90000, 50.0
8.91000, 46.0
8.92000, 46.0
8.93000, 48.0
8.94000, 43.0
8.95000, 48.0
8.96000, 46.0
8.97000, 43.0
8.98000, 45.0
8.99000, 46.0
9.00000, 50.0
9.01000, 52.0
9.02000, 45.0
9.03000, 46.0
9.04000, 39.0
9.05000, 37.0
9.06000, 41.0
9.07000, 49.0
9.08000, 42.0
9.09000, 38.0
9.10000, 40.0
9.11000, 37.0
9.12000, 35.0
9.13000, 37.0
9.14000, 34.0
9.15000, 34.0
9.16000, 35.0
9.17000, 39.0
9.18000, 39.0
9.19000, 34.0
9.20000, 31.0
9.21000, 34.0
9.22000, 36.0
9.23000, 41.0
9.24000, 37.0
9.25000, 35.0
9.26000, 38.0
9.27000, 36.0
9.28000, 38.0
9.29000, 26.0
9.30000, 20.0
9.31000, 22.0
9.32000, 28.0
9.33000, 33.0
9.34000, 29.0
9.35000, 28.0
9.36000, 29.0
9.37000, 35.0
9.38000, 36.0
9.39000, 30.0
9.40000, 28.0
9.41000, 28.0
9.42000, 22.0
9.43000, 22.0
9.44000, 31.0
9.45000, 34.0
9.46000, 22.0
9.47000, 21.0
9.48000, 22.0
9.49000, 16.0
9.50000, 17.0
9.51000, 21.0
9.52000, 22.0
9.53000, 15.0
9.54000, 16.0
9.55000, 19.0
9.56000, 18.0
9.57000, 18.0
9.58000, 20.0
9.59000, 18.0
9.60000, 18.0
9.61000, 21.0
9.62000, 20.0
9.63000, 11.0
9.64000, 14.0
9.65000, 18.0
9.66000, 13.0
9.67000, 13.0
9.68000, 14.0
9.69000, 12.0
9.70000, 13.0
9.71000, 14.0
9.72000, 15.0
9.73000, 14.0
9.74000, 10.0
9.75000, 8.0
9.76000, 6.0
9.77000, 8.0
9.78000, 5.0
9.79000, 4.0
9.80000, 7.0
9.81000, 6.0
9.82000, 7.0
9.83000, 9.0
9.84000, 9.0
9.85000, 6.0
9.86000, 2.0
9.87000, 4.0
9.88000, 5.0
9.89000, 4.0
9.90000, 6.0
9.91000, 5.0
9.92000, 2.0
9.93000, 4.0
9.94000, 3.0
9.95000, 2.0
9.96000, 3.0
9.97000, 1.0
9.98000, 1.0
9.99000, 1.0
10.00000, 3.0
10.01000, 3.0
10.02000, 5.0
10.03000, 6.0
10.04000, 3.0
10.05000, 3.0
10.06000, 2.0
10.07000, 3.0
10.08000, 3.0
10.09000, 2.0
10.10000, 3.0
10.11000, 2.0
10.12000, 2.0
10.13000, 2.0
#ENDOFDATA   :