File: Experimental data/SEM and EDX/EDX/Second/EDX/1/Map Sum Spectrum.txt
#FORMAT      : EMSA/MAS Spectral Data File
#VERSION     : 1.0
#TITLE       : Map Sum Spectrum
#DATE        : 10-JUL-2024
#TIME        : 10:36
#OWNER       :
#NPOINTS     : 1024.0
#NCOLUMNS    : 1.0
#XUNITS      : keV
#YUNITS      : counts
#DATATYPE    : XY
#XPERCHAN    : 0.01
#OFFSET      : -0.1
#SIGNALTYPE  : EDS
#CHOFFSET    : 10.0
#LIVETIME    : 121.38
#REALTIME    : 170.068
#BEAMKV      : 10.0
#PROBECUR    : 0.0
#MAGCAM      : 347.0
#XTILTSTGE   : 0.0
#AZIMANGLE   : 0.0
#ELEVANGLE   : 35.0
#XPOSITION mm: 66.4303
#YPOSITION mm: 62.8987
#ZPOSITION mm: 34.2099
##OXINSTPT   : 5
##OXINSTSTROB: 34.37
##OXINSTNDET : 1
##OXINSTELEMS: 6,13,14,18,19,39,8,9,11
##OXINSTLABEL: 6, 0.277, C
##OXINSTLABEL: 13, 1.487, Al
##OXINSTLABEL: 14, 1.740, Si
##OXINSTLABEL: 18, 2.958, Ar
##OXINSTLABEL: 18, 3.191, Ar
##OXINSTLABEL: 18, 0.220, Ar
##OXINSTLABEL: 19, 3.314, K
##OXINSTLABEL: 19, 3.590, K
##OXINSTLABEL: 19, 0.260, K
##OXINSTLABEL: 39, 1.923, Y
##OXINSTLABEL: 39, 1.761, Y
##OXINSTLABEL: 39, 1.685, Y
##OXINSTLABEL: 39, 0.133, Y
##OXINSTLABEL: 8, 0.525, O
##OXINSTLABEL: 9, 0.677, F
##OXINSTLABEL: 11, 1.041, Na
#SPECTRUM    : Spectral Data Starts Here
-0.10000, 0.0
-0.09000, 0.0
-0.08000, 0.0
-0.07000, 0.0
-0.06000, 2.0
-0.05000, 18.0
-0.04000, 99.0
-0.03000, 512.0
-0.02000, 1795.0
-0.01000, 3860.0
0.00000, 5609.0
0.01000, 6057.0
0.02000, 5642.0
0.03000, 5016.0
0.04000, 4146.0
0.05000, 3193.0
0.06000, 2874.0
0.07000, 3589.0
0.08000, 5077.0
0.09000, 6031.0
0.10000, 5682.0
0.11000, 4303.0
0.12000, 2833.0
0.13000, 1887.0
0.14000, 1528.0
0.15000, 1468.0
0.16000, 1527.0
0.17000, 1627.0
0.18000, 1811.0
0.19000, 2100.0
0.20000, 2590.0
0.21000, 3448.0
0.22000, 5195.0
0.23000, 9138.0
0.24000, 16913.0
0.25000, 28874.0
0.26000, 41967.0
0.27000, 49707.0
0.28000, 46678.0
0.29000, 34440.0
0.30000, 19990.0
0.31000, 9457.0
0.32000, 4039.0
0.33000, 2038.0
0.34000, 1633.0
0.35000, 1609.0
0.36000, 1721.0
0.37000, 1906.0
0.38000, 1995.0
0.39000, 2162.0
0.40000, 2359.0
0.41000, 2537.0
0.42000, 2705.0
0.43000, 3046.0
0.44000, 3472.0
0.45000, 4010.0
0.46000, 5127.0
0.47000, 7433.0
0.48000, 12171.0
0.49000, 20284.0
0.50000, 31690.0
0.51000, 43162.0
0.52000, 49640.0
0.53000, 48199.0
0.54000, 39228.0
0.55000, 26698.0
0.56000, 15982.0
0.57000, 9429.0
0.58000, 6388.0
0.59000, 5307.0
0.60000, 5322.0
0.61000, 6017.0
0.62000, 7465.0
0.63000, 10620.0
0.64000, 16280.0
0.65000, 24576.0
0.66000, 34211.0
0.67000, 41841.0
0.68000, 43947.0
0.69000, 40192.0
0.70000, 32098.0
0.71000, 22891.0
0.72000, 15278.0
0.73000, 10290.0
0.74000, 7710.0
0.75000, 6415.0
0.76000, 5795.0
0.77000, 5592.0
0.78000, 5593.0
0.79000, 5587.0
0.80000, 5654.0
0.81000, 5740.0
0.82000, 6080.0
0.83000, 6454.0
0.84000, 6806.0
0.85000, 6974.0
0.86000, 7101.0
0.87000, 6948.0
0.88000, 6678.0
0.89000, 6492.0
0.90000, 6362.0
0.91000, 6365.0
0.92000, 6331.0
0.93000, 6357.0
0.94000, 6441.0
0.95000, 6418.0
0.96000, 6390.0
0.97000, 6425.0
0.98000, 6688.0
0.99000, 7236.0
1.00000, 8312.0
1.01000, 10099.0
1.02000, 11988.0
1.03000, 13945.0
1.04000, 14940.0
1.05000, 14746.0
1.06000, 13469.0
1.07000, 11540.0
1.08000, 9617.0
1.09000, 8013.0
1.10000, 6988.0
1.11000, 6392.0
1.12000, 6074.0
1.13000, 5911.0
1.14000, 5904.0
1.15000, 5835.0
1.16000, 5834.0
1.17000, 5878.0
1.18000, 5967.0
1.19000, 5922.0
1.20000, 5913.0
1.21000, 5885.0
1.22000, 5848.0
1.23000, 5981.0
1.24000, 5971.0
1.25000, 5926.0
1.26000, 5807.0
1.27000, 5726.0
1.28000, 5704.0
1.29000, 5756.0
1.30000, 5693.0
1.31000, 5688.0
1.32000, 5663.0
1.33000, 5652.0
1.34000, 5689.0
1.35000, 5784.0
1.36000, 5798.0
1.37000, 5814.0
1.38000, 5823.0
1.39000, 5810.0
1.40000, 6012.0
1.41000, 6312.0
1.42000, 7039.0
1.43000, 8539.0
1.44000, 11008.0
1.45000, 14391.0
1.46000, 18580.0
1.47000, 22862.0
1.48000, 26030.0
1.49000, 27397.0
1.50000, 26300.0
1.51000, 23526.0
1.52000, 19406.0
1.53000, 15546.0
1.54000, 12172.0
1.55000, 9672.0
1.56000, 8290.0
1.57000, 7518.0
1.58000, 6946.0
1.59000, 6700.0
1.60000, 6404.0
1.61000, 6184.0
1.62000, 6124.0
1.63000, 6466.0
1.64000, 7784.0
1.65000, 11002.0
1.66000, 18321.0
1.67000, 33646.0
1.68000, 61112.0
1.69000, 105194.0
1.70000, 166615.0
1.71000, 242313.0
1.72000, 320061.0
1.73000, 382172.0
1.74000, 413614.0
1.75000, 404755.0
1.76000, 359685.0
1.77000, 290619.0
1.78000, 214708.0
1.79000, 146688.0
1.80000, 94445.0
1.81000, 60244.0
1.82000, 40370.0
1.83000, 29681.0
1.84000, 24074.0
1.85000, 20138.0
1.86000, 16941.0
1.87000, 13801.0
1.88000, 11049.0
1.89000, 9036.0
1.90000, 7623.0
1.91000, 6724.0
1.92000, 6166.0
1.93000, 5723.0
1.94000, 5372.0
1.95000, 5053.0
1.96000, 4817.0
1.97000, 4681.0
1.98000, 4566.0
1.99000, 4554.0
2.00000, 4550.0
2.01000, 4474.0
2.02000, 4319.0
2.03000, 4043.0
2.04000, 3820.0
2.05000, 3542.0
2.06000, 3284.0
2.07000, 3154.0
2.08000, 3043.0
2.09000, 2906.0
2.10000, 2762.0
2.11000, 2699.0
2.12000, 2684.0
2.13000, 2636.0
2.14000, 2662.0
2.15000, 2659.0
2.16000, 2635.0
2.17000, 2585.0
2.18000, 2554.0
2.19000, 2572.0
2.20000, 2608.0
2.21000, 2595.0
2.22000, 2671.0
2.23000, 2708.0
2.24000, 2808.0
2.25000, 2815.0
2.26000, 2820.0
2.27000, 2865.0
2.28000, 2860.0
2.29000, 2801.0
2.30000, 2745.0
2.31000, 2703.0
2.32000, 2682.0
2.33000, 2638.0
2.34000, 2621.0
2.35000, 2618.0
2.36000, 2586.0
2.37000, 2543.0
2.38000, 2531.0
2.39000, 2594.0
2.40000, 2619.0
2.41000, 2572.0
2.42000, 2538.0
2.43000, 2535.0
2.44000, 2464.0
2.45000, 2407.0
2.46000, 2376.0
2.47000, 2425.0
2.48000, 2418.0
2.49000, 2390.0
2.50000, 2375.0
2.51000, 2312.0
2.52000, 2297.0
2.53000, 2285.0
2.54000, 2267.0
2.55000, 2322.0
2.56000, 2271.0
2.57000, 2193.0
2.58000, 2207.0
2.59000, 2239.0
2.60000, 2248.0
2.61000, 2245.0
2.62000, 2221.0
2.63000, 2196.0
2.64000, 2205.0
2.65000, 2235.0
2.66000, 2174.0
2.67000, 2161.0
2.68000, 2177.0
2.69000, 2145.0
2.70000, 2164.0
2.71000, 2176.0
2.72000, 2174.0
2.73000, 2176.0
2.74000, 2165.0
2.75000, 2092.0
2.76000, 2070.0
2.77000, 2094.0
2.78000, 2104.0
2.79000, 2122.0
2.80000, 2111.0
2.81000, 2133.0
2.82000, 2100.0
2.83000, 2096.0
2.84000, 2146.0
2.85000, 2177.0
2.86000, 2275.0
2.87000, 2490.0
2.88000, 2820.0
2.89000, 3268.0
2.90000, 3932.0
2.91000, 4764.0
2.92000, 5825.0
2.93000, 7004.0
2.94000, 8043.0
2.95000, 8715.0
2.96000, 9186.0
2.97000, 9251.0
2.98000, 8663.0
2.99000, 7712.0
3.00000, 6688.0
3.01000, 5535.0
3.02000, 4463.0
3.03000, 3616.0
3.04000, 2972.0
3.05000, 2518.0
3.06000, 2231.0
3.07000, 2054.0
3.08000, 1983.0
3.09000, 1929.0
3.10000, 1951.0
3.11000, 1936.0
3.12000, 1997.0
3.13000, 2035.0
3.14000, 2105.0
3.15000, 2172.0
3.16000, 2284.0
3.17000, 2440.0
3.18000, 2528.0
3.19000, 2655.0
3.20000, 2728.0
3.21000, 2775.0
3.22000, 2901.0
3.23000, 3042.0
3.24000, 3262.0
3.25000, 3655.0
3.26000, 4183.0
3.27000, 4869.0
3.28000, 5541.0
3.29000, 6299.0
3.30000, 7043.0
3.31000, 7450.0
3.32000, 7495.0
3.33000, 7376.0
3.34000, 6928.0
3.35000, 6179.0
3.36000, 5306.0
3.37000, 4516.0
3.38000, 3833.0
3.39000, 3178.0
3.40000, 2794.0
3.41000, 2597.0
3.42000, 2571.0
3.43000, 2700.0
3.44000, 2953.0
3.45000, 3264.0
3.46000, 3521.0
3.47000, 3752.0
3.48000, 3877.0
3.49000, 3913.0
3.50000, 3924.0
3.51000, 3727.0
3.52000, 3400.0
3.53000, 3094.0
3.54000, 2942.0
3.55000, 2775.0
3.56000, 2578.0
3.57000, 2516.0
3.58000, 2466.0
3.59000, 2366.0
3.60000, 2320.0
3.61000, 2237.0
3.62000, 2151.0
3.63000, 2015.0
3.64000, 1905.0
3.65000, 1771.0
3.66000, 1641.0
3.67000, 1585.0
3.68000, 1529.0
3.69000, 1512.0
3.70000, 1484.0
3.71000, 1412.0
3.72000, 1372.0
3.73000, 1329.0
3.74000, 1344.0
3.75000, 1349.0
3.76000, 1330.0
3.77000, 1322.0
3.78000, 1323.0
3.79000, 1320.0
3.80000, 1315.0
3.81000, 1317.0
3.82000, 1315.0
3.83000, 1319.0
3.84000, 1324.0
3.85000, 1290.0
3.86000, 1284.0
3.87000, 1268.0
3.88000, 1297.0
3.89000, 1254.0
3.90000, 1267.0
3.91000, 1264.0
3.92000, 1251.0
3.93000, 1224.0
3.94000, 1213.0
3.95000, 1248.0
3.96000, 1234.0
3.97000, 1197.0
3.98000, 1231.0
3.99000, 1203.0
4.00000, 1174.0
4.01000, 1182.0
4.02000, 1231.0
4.03000, 1203.0
4.04000, 1172.0
4.05000, 1225.0
4.06000, 1180.0
4.07000, 1166.0
4.08000, 1163.0
4.09000, 1112.0
4.10000, 1150.0
4.11000, 1175.0
4.12000, 1104.0
4.13000, 1127.0
4.14000, 1168.0
4.15000, 1113.0
4.16000, 1106.0
4.17000, 1137.0
4.18000, 1147.0
4.19000, 1137.0
4.20000, 1135.0
4.21000, 1117.0
4.22000, 1097.0
4.23000, 1071.0
4.24000, 1085.0
4.25000, 1063.0
4.26000, 1011.0
4.27000, 1052.0
4.28000, 1073.0
4.29000, 1087.0
4.30000, 1109.0
4.31000, 1071.0
4.32000, 1018.0
4.33000, 1042.0
4.34000, 1033.0
4.35000, 1035.0
4.36000, 1035.0
4.37000, 1009.0
4.38000, 1029.0
4.39000, 1025.0
4.40000, 993.0
4.41000, 985.0
4.42000, 995.0
4.43000, 991.0
4.44000, 983.0
4.45000, 974.0
4.46000, 962.0
4.47000, 965.0
4.48000, 1010.0
4.49000, 960.0
4.50000, 966.0
4.51000, 1008.0
4.52000, 1006.0
4.53000, 987.0
4.54000, 966.0
4.55000, 953.0
4.56000, 946.0
4.57000, 920.0
4.58000, 984.0
4.59000, 1012.0
4.60000, 945.0
4.61000, 894.0
4.62000, 948.0
4.63000, 969.0
4.64000, 941.0
4.65000, 982.0
4.66000, 981.0
4.67000, 947.0
4.68000, 933.0
4.69000, 956.0
4.70000, 979.0
4.71000, 954.0
4.72000, 932.0
4.73000, 912.0
4.74000, 905.0
4.75000, 909.0
4.76000, 920.0
4.77000, 875.0
4.78000, 881.0
4.79000, 883.0
4.80000, 877.0
4.81000, 854.0
4.82000, 862.0
4.83000, 865.0
4.84000, 873.0
4.85000, 824.0
4.86000, 823.0
4.87000, 859.0
4.88000, 881.0
4.89000, 853.0
4.90000, 836.0
4.91000, 818.0
4.92000, 773.0
4.93000, 797.0
4.94000, 840.0
4.95000, 834.0
4.96000, 808.0
4.97000, 791.0
4.98000, 819.0
4.99000, 797.0
5.00000, 792.0
5.01000, 821.0
5.02000, 793.0
5.03000, 774.0
5.04000, 800.0
5.05000, 837.0
5.06000, 794.0
5.07000, 775.0
5.08000, 771.0
5.09000, 781.0
5.10000, 792.0
5.11000, 798.0
5.12000, 774.0
5.13000, 735.0
5.14000, 745.0
5.15000, 738.0
5.16000, 754.0
5.17000, 747.0
5.18000, 720.0
5.19000, 708.0
5.20000, 734.0
5.21000, 720.0
5.22000, 712.0
5.23000, 706.0
5.24000, 709.0
5.25000, 723.0
5.26000, 726.0
5.27000, 709.0
5.28000, 718.0
5.29000, 725.0
5.30000, 742.0
5.31000, 795.0
5.32000, 788.0
5.33000, 766.0
5.34000, 764.0
5.35000, 809.0
5.36000, 902.0
5.37000, 895.0
5.38000, 897.0
5.39000, 970.0
5.40000, 1016.0
5.41000, 1018.0
5.42000, 965.0
5.43000, 917.0
5.44000, 903.0
5.45000, 887.0
5.46000, 827.0
5.47000, 798.0
5.48000, 784.0
5.49000, 759.0
5.50000, 721.0
5.51000, 665.0
5.52000, 655.0
5.53000, 663.0
5.54000, 612.0
5.55000, 606.0
5.56000, 584.0
5.57000, 600.0
5.58000, 626.0
5.59000, 620.0
5.60000, 612.0
5.61000, 621.0
5.62000, 602.0
5.63000, 580.0
5.64000, 590.0
5.65000, 612.0
5.66000, 592.0
5.67000, 604.0
5.68000, 605.0
5.69000, 587.0
5.70000, 572.0
5.71000, 586.0
5.72000, 586.0
5.73000, 587.0
5.74000, 584.0
5.75000, 590.0
5.76000, 599.0
5.77000, 592.0
5.78000, 549.0
5.79000, 564.0
5.80000, 556.0
5.81000, 542.0
5.82000, 549.0
5.83000, 552.0
5.84000, 536.0
5.85000, 567.0
5.86000, 604.0
5.87000, 557.0
5.88000, 571.0
5.89000, 568.0
5.90000, 573.0
5.91000, 575.0
5.92000, 579.0
5.93000, 586.0
5.94000, 557.0
5.95000, 553.0
5.96000, 549.0
5.97000, 554.0
5.98000, 541.0
5.99000, 534.0
6.00000, 523.0
6.01000, 503.0
6.02000, 500.0
6.03000, 520.0
6.04000, 490.0
6.05000, 476.0
6.06000, 483.0
6.07000, 475.0
6.08000, 487.0
6.09000, 485.0
6.10000, 485.0
6.11000, 469.0
6.12000, 475.0
6.13000, 485.0
6.14000, 462.0
6.15000, 466.0
6.16000, 451.0
6.17000, 476.0
6.18000, 472.0
6.19000, 477.0
6.20000, 481.0
6.21000, 479.0
6.22000, 473.0
6.23000, 477.0
6.24000, 471.0
6.25000, 457.0
6.26000, 464.0
6.27000, 462.0
6.28000, 454.0
6.29000, 474.0
6.30000, 509.0
6.31000, 532.0
6.32000, 527.0
6.33000, 572.0
6.34000, 600.0
6.35000, 657.0
6.36000, 709.0
6.37000, 707.0
6.38000, 721.0
6.39000, 746.0
6.40000, 771.0
6.41000, 735.0
6.42000, 704.0
6.43000, 692.0
6.44000, 651.0
6.45000, 630.0
6.46000, 585.0
6.47000, 559.0
6.48000, 525.0
6.49000, 482.0
6.50000, 487.0
6.51000, 465.0
6.52000, 441.0
6.53000, 425.0
6.54000, 403.0
6.55000, 386.0
6.56000, 404.0
6.57000, 385.0
6.58000, 381.0
6.59000, 418.0
6.60000, 411.0
6.61000, 407.0
6.62000, 415.0
6.63000, 385.0
6.64000, 389.0
6.65000, 399.0
6.66000, 374.0
6.67000, 362.0
6.68000, 377.0
6.69000, 390.0
6.70000, 391.0
6.71000, 375.0
6.72000, 369.0
6.73000, 383.0
6.74000, 376.0
6.75000, 363.0
6.76000, 374.0
6.77000, 348.0
6.78000, 343.0
6.79000, 348.0
6.80000, 340.0
6.81000, 339.0
6.82000, 359.0
6.83000, 359.0
6.84000, 349.0
6.85000, 317.0
6.86000, 327.0
6.87000, 365.0
6.88000, 355.0
6.89000, 373.0
6.90000, 346.0
6.91000, 331.0
6.92000, 344.0
6.93000, 351.0
6.94000, 332.0
6.95000, 328.0
6.96000, 336.0
6.97000, 334.0
6.98000, 347.0
6.99000, 338.0
7.00000, 336.0
7.01000, 346.0
7.02000, 340.0
7.03000, 362.0
7.04000, 368.0
7.05000, 341.0
7.06000, 337.0
7.07000, 350.0
7.08000, 371.0
7.09000, 348.0
7.10000, 356.0
7.11000, 339.0
7.12000, 340.0
7.13000, 323.0
7.14000, 316.0
7.15000, 322.0
7.16000, 319.0
7.17000, 311.0
7.18000, 284.0
7.19000, 283.0
7.20000, 304.0
7.21000, 303.0
7.22000, 286.0
7.23000, 294.0
7.24000, 287.0
7.25000, 273.0
7.26000, 276.0
7.27000, 268.0
7.28000, 270.0
7.29000, 253.0
7.30000, 249.0
7.31000, 262.0
7.32000, 287.0
7.33000, 290.0
7.34000, 280.0
7.35000, 278.0
7.36000, 268.0
7.37000, 261.0
7.38000, 260.0
7.39000, 279.0
7.40000, 282.0
7.41000, 279.0
7.42000, 284.0
7.43000, 289.0
7.44000, 287.0
7.45000, 277.0
7.46000, 297.0
7.47000, 294.0
7.48000, 308.0
7.49000, 302.0
7.50000, 308.0
7.51000, 277.0
7.52000, 241.0
7.53000, 252.0
7.54000, 272.0
7.55000, 269.0
7.56000, 253.0
7.57000, 263.0
7.58000, 253.0
7.59000, 226.0
7.60000, 226.0
7.61000, 242.0
7.62000, 221.0
7.63000, 221.0
7.64000, 229.0
7.65000, 222.0
7.66000, 225.0
7.67000, 252.0
7.68000, 234.0
7.69000, 230.0
7.70000, 230.0
7.71000, 222.0
7.72000, 212.0
7.73000, 211.0
7.74000, 206.0
7.75000, 212.0
7.76000, 222.0
7.77000, 226.0
7.78000, 234.0
7.79000, 214.0
7.80000, 195.0
7.81000, 198.0
7.82000, 199.0
7.83000, 209.0
7.84000, 203.0
7.85000, 204.0
7.86000, 205.0
7.87000, 195.0
7.88000, 166.0
7.89000, 193.0
7.90000, 197.0
7.91000, 197.0
7.92000, 201.0
7.93000, 192.0
7.94000, 187.0
7.95000, 201.0
7.96000, 205.0
7.97000, 194.0
7.98000, 187.0
7.99000, 165.0
8.00000, 184.0
8.01000, 198.0
8.02000, 193.0
8.03000, 181.0
8.04000, 183.0
8.05000, 187.0
8.06000, 186.0
8.07000, 178.0
8.08000, 180.0
8.09000, 177.0
8.10000, 176.0
8.11000, 170.0
8.12000, 180.0
8.13000, 165.0
8.14000, 146.0
8.15000, 169.0
8.16000, 176.0
8.17000, 157.0
8.18000, 161.0
8.19000, 179.0
8.20000, 177.0
8.21000, 160.0
8.22000, 150.0
8.23000, 148.0
8.24000, 156.0
8.25000, 166.0
8.26000, 162.0
8.27000, 162.0
8.28000, 177.0
8.29000, 172.0
8.30000, 151.0
8.31000, 154.0
8.32000, 152.0
8.33000, 148.0
8.34000, 162.0
8.35000, 161.0
8.36000, 164.0
8.37000, 156.0
8.38000, 148.0
8.39000, 140.0
8.40000, 145.0
8.41000, 138.0
8.42000, 136.0
8.43000, 123.0
8.44000, 128.0
8.45000, 145.0
8.46000, 137.0
8.47000, 132.0
8.48000, 133.0
8.49000, 140.0
8.50000, 141.0
8.51000, 120.0
8.52000, 127.0
8.53000, 120.0
8.54000, 103.0
8.55000, 109.0
8.56000, 121.0
8.57000, 128.0
8.58000, 121.0
8.59000, 118.0
8.60000, 128.0
8.61000, 125.0
8.62000, 116.0
8.63000, 109.0
8.64000, 113.0
8.65000, 115.0
8.66000, 120.0
8.67000, 115.0
8.68000, 114.0
8.69000, 104.0
8.70000, 101.0
8.71000, 96.0
8.72000, 98.0
8.73000, 102.0
8.74000, 116.0
8.75000, 112.0
8.76000, 98.0
8.77000, 101.0
8.78000, 102.0
8.79000, 102.0
8.80000, 106.0
8.81000, 108.0
8.82000, 101.0
8.83000, 94.0
8.84000, 97.0
8.85000, 102.0
8.86000, 106.0
8.87000, 91.0
8.88000, 92.0
8.89000, 94.0
8.90000, 95.0
8.91000, 87.0
8.92000, 84.0
8.93000, 94.0
8.94000, 80.0
8.95000, 85.0
8.96000, 84.0
8.97000, 78.0
8.98000, 84.0
8.99000, 87.0
9.00000, 87.0
9.01000, 74.0
9.02000, 69.0
9.03000, 73.0
9.04000, 82.0
9.05000, 79.0
9.06000, 67.0
9.07000, 76.0
9.08000, 83.0
9.09000, 85.0
9.10000, 85.0
9.11000, 81.0
9.12000, 72.0
9.13000, 64.0
9.14000, 73.0
9.15000, 70.0
9.16000, 68.0
9.17000, 72.0
9.18000, 68.0
9.19000, 66.0
9.20000, 70.0
9.21000, 70.0
9.22000, 64.0
9.23000, 60.0
9.24000, 64.0
9.25000, 54.0
9.26000, 68.0
9.27000, 58.0
9.28000, 57.0
9.29000, 60.0
9.30000, 61.0
9.31000, 60.0
9.32000, 55.0
9.33000, 56.0
9.34000, 54.0
9.35000, 54.0
9.36000, 52.0
9.37000, 54.0
9.38000, 50.0
9.39000, 55.0
9.40000, 59.0
9.41000, 47.0
9.42000, 48.0
9.43000, 43.0
9.44000, 41.0
9.45000, 39.0
9.46000, 43.0
9.47000, 43.0
9.48000, 46.0
9.49000, 48.0
9.50000, 36.0
9.51000, 31.0
9.52000, 37.0
9.53000, 41.0
9.54000, 38.0
9.55000, 39.0
9.56000, 41.0
9.57000, 37.0
9.58000, 31.0
9.59000, 28.0
9.60000, 29.0
9.61000, 31.0
9.62000, 32.0
9.63000, 38.0
9.64000, 33.0
9.65000, 28.0
9.66000, 29.0
9.67000, 27.0
9.68000, 23.0
9.69000, 28.0
9.70000, 24.0
9.71000, 21.0
9.72000, 24.0
9.73000, 21.0
9.74000, 24.0
9.75000, 22.0
9.76000, 18.0
9.77000, 19.0
9.78000, 18.0
9.79000, 20.0
9.80000, 15.0
9.81000, 14.0
9.82000, 18.0
9.83000, 17.0
9.84000, 18.0
9.85000, 15.0
9.86000, 10.0
9.87000, 13.0
9.88000, 14.0
9.89000, 13.0
9.90000, 14.0
9.91000, 14.0
9.92000, 11.0
9.93000, 9.0
9.94000, 10.0
9.95000, 8.0
9.96000, 6.0
9.97000, 5.0
9.98000, 6.0
9.99000, 3.0
10.00000, 5.0
10.01000, 5.0
10.02000, 4.0
10.03000, 4.0
10.04000, 3.0
10.05000, 6.0
10.06000, 5.0
10.07000, 4.0
10.08000, 3.0
10.09000, 3.0
10.10000, 4.0
10.11000, 6.0
10.12000, 5.0
10.13000, 5.0
#ENDOFDATA   :